stim1,stim2,correct,practice.thisRepN,practice.thisTrialN,practice.thisN,practice.thisIndex,ws.thisRepN,ws.thisTrialN,ws.thisN,ws.thisIndex,cat.thisRepN,cat.thisTrialN,cat.thisN,cat.thisIndex,key_resp_2.keys,key_resp_9.keys,key_resp_9.corr,key_resp_9.rt,key_resp_3.keys,key_resp_3.rt,key_resp_2.rt,key_resp_7.keys,key_resp_7.rt,key_resp_8.keys,key_resp_8.rt,date,frameRate,expName,session,participant,
prac1.wav,prac2.wav,1,0,0,0,0,,,,,,,,,None,1,1,0.368338823318,,,,,,,,2016_Mar_29_1623,59.9452613947,Stat_Cat_Oct,001,101,
,,,,,,,,,,,,,,,,,,,space,3.95572304726,,,,,,2016_Mar_29_1623,59.9452613947,Stat_Cat_Oct,001,101,
ws/15.wav,ws/6.wav,2,,,,,0,0,0,8,,,,,None,1,0,5.09011697769,,,,,,,,2016_Mar_29_1623,59.9452613947,Stat_Cat_Oct,001,101,
ws/28.wav,ws/7.wav,2,,,,,0,1,1,13,,,,,None,2,1,3.75521111488,,,,,,,,2016_Mar_29_1623,59.9452613947,Stat_Cat_Oct,001,101,
ws/7.wav,ws/16.wav,1,,,,,0,2,2,6,,,,,None,1,1,2.25361299515,,,,,,,,2016_Mar_29_1623,59.9452613947,Stat_Cat_Oct,001,101,
ws/5.wav,ws/14.wav,1,,,,,0,3,3,2,,,,,['2'],2,0,0.651822805405,,,[2.6698050498962402],,,,,2016_Mar_29_1623,59.9452613947,Stat_Cat_Oct,001,101,
ws/23.wav,ws/5.wav,2,,,,,0,4,4,10,,,,,None,1,0,0.00122809410095,,,,,,,,2016_Mar_29_1623,59.9452613947,Stat_Cat_Oct,001,101,
ws/2.wav,ws/11.wav,1,,,,,0,5,5,0,,,,,['1'],1,1,0.585192918777,,,[2.87096905708313],,,,,2016_Mar_29_1623,59.9452613947,Stat_Cat_Oct,001,101,
ws/25.wav,ws/7.wav,2,,,,,0,6,6,11,,,,,['1'],1,0,0.117831945419,,,[2.620626926422119],,,,,2016_Mar_29_1623,59.9452613947,Stat_Cat_Oct,001,101,
ws/8.wav,ws/26.wav,1,,,,,0,7,7,7,,,,,['2'],2,0,0.184494018555,,,[2.620767831802368],,,,,2016_Mar_29_1623,59.9452613947,Stat_Cat_Oct,001,101,
ws/5.wav,ws/36.wav,1,,,,,0,8,8,3,,,,,None,1,1,0.351542949677,,,,,,,,2016_Mar_29_1623,59.9452613947,Stat_Cat_Oct,001,101,
ws/35.wav,ws/8.wav,2,,,,,0,9,9,14,,,,,['1'],1,0,0.334836959839,,,[2.78764009475708],,,,,2016_Mar_29_1623,59.9452613947,Stat_Cat_Oct,001,101,
ws/30.wav,ws/2.wav,2,,,,,0,10,10,12,,,,,None,2,1,0.301516056061,,,,,,,,2016_Mar_29_1623,59.9452613947,Stat_Cat_Oct,001,101,
ws/2.wav,ws/20.wav,1,,,,,0,11,11,1,,,,,None,1,1,0.201503992081,,,,,,,,2016_Mar_29_1623,59.9452613947,Stat_Cat_Oct,001,101,
ws/17.wav,ws/8.wav,2,,,,,0,12,12,9,,,,,None,1,0,0.585056066513,,,,,,,,2016_Mar_29_1623,59.9452613947,Stat_Cat_Oct,001,101,
ws/6.wav,ws/24.wav,1,,,,,0,13,13,5,,,,,None,1,1,0.218065023422,,,,,,,,2016_Mar_29_1623,59.9452613947,Stat_Cat_Oct,001,101,
ws/6.wav,ws/32.wav,1,,,,,0,14,14,4,,,,,None,1,1,0.134740114212,,,,,,,,2016_Mar_29_1623,59.9452613947,Stat_Cat_Oct,001,101,
,,,,,,,,,,,,,,,,,,,,,,space,6.54162192345,,,2016_Mar_29_1623,59.9452613947,Stat_Cat_Oct,001,101,
cat/2-13-8.wav,cat/2-8-13.wav,1,,,,,,,,,0,0,0,14,,1,1,3.25483083725,,,,,,,,2016_Mar_29_1623,59.9452613947,Stat_Cat_Oct,001,101,
cat/627.wav,cat/672.wav,2,,,,,,,,,0,1,1,6,,1,0,2.23693394661,,,,,,,,2016_Mar_29_1623,59.9452613947,Stat_Cat_Oct,001,101,
cat/2-5-18.wav,cat/2-5-12.wav,1,,,,,,,,,0,2,2,17,,1,1,2.78761196136,,,,,,,,2016_Mar_29_1623,59.9452613947,Stat_Cat_Oct,001,101,
cat/257.wav,cat/275.wav,1,,,,,,,,,0,3,3,0,,1,1,0.251714944839,,,,,,,,2016_Mar_29_1623,59.9452613947,Stat_Cat_Oct,001,101,
cat/2-6-20.wav,cat/2-6-18.wav,2,,,,,,,,,0,4,4,29,,1,0,1.20264601707,,,,,,,,2016_Mar_29_1623,59.9452613947,Stat_Cat_Oct,001,101,
cat/725.wav,cat/752.wav,1,,,,,,,,,0,5,5,8,,1,1,0.468455076218,,,,,,,,2016_Mar_29_1623,59.9452613947,Stat_Cat_Oct,001,101,
cat/2-17-7.wav,cat/2-15-7.wav,2,,,,,,,,,0,6,6,26,,1,0,0.451701879501,,,,,,,,2016_Mar_29_1623,59.9452613947,Stat_Cat_Oct,001,101,
cat/826.wav,cat/862.wav,1,,,,,,,,,0,7,7,11,,1,1,0.568568944931,,,,,,,,2016_Mar_29_1623,59.9452613947,Stat_Cat_Oct,001,101,
cat/7-5-10.wav,cat/7-10-5.wav,2,,,,,,,,,0,8,8,22,,2,1,1.10234999657,,,,,,,,2016_Mar_29_1623,59.9452613947,Stat_Cat_Oct,001,101,
cat/8-12-5.wav,cat/8-5-12.wav,1,,,,,,,,,0,9,9,24,,1,1,0.485131978989,,,,,,,,2016_Mar_29_1623,59.9452613947,Stat_Cat_Oct,001,101,
cat/276.wav,cat/267.wav,2,,,,,,,,,0,10,10,2,,1,0,0.434882879257,,,,,,,,2016_Mar_29_1623,59.9452613947,Stat_Cat_Oct,001,101,
cat/11-5-7.wav,cat/21-5-7.wav,1,,,,,,,,,0,11,11,13,,2,0,0.0179150104523,,,,,,,,2016_Mar_29_1623,59.9452613947,Stat_Cat_Oct,001,101,
cat/2-14-8.wav,cat/2-10-8.wav,1,,,,,,,,,0,12,12,15,,1,1,0.351505994797,,,,,,,,2016_Mar_29_1623,59.9452613947,Stat_Cat_Oct,001,101,
cat/25-5-8.wav,cat/12-5-8.wav,2,,,,,,,,,0,13,13,32,,1,0,0.0513699054718,,,,,,,,2016_Mar_29_1623,59.9452613947,Stat_Cat_Oct,001,101,
cat/682.wav,cat/628.wav,1,,,,,,,,,0,14,14,7,,None,0,,,,,,,,,2016_Mar_29_1623,59.9452613947,Stat_Cat_Oct,001,101,
cat/528.wav,cat/582.wav,2,,,,,,,,,0,15,15,5,,2,1,0.301549911499,,,,,,,,2016_Mar_29_1623,59.9452613947,Stat_Cat_Oct,001,101,
cat/2-7-14.wav,cat/2-14-7.wav,2,,,,,,,,,0,16,16,30,,2,1,0.384971857071,,,,,,,,2016_Mar_29_1623,59.9452613947,Stat_Cat_Oct,001,101,
cat/285.wav,cat/258.wav,2,,,,,,,,,0,17,17,1,,2,1,0.151489973068,,,,,,,,2016_Mar_29_1623,59.9452613947,Stat_Cat_Oct,001,101,
cat/268.wav,cat/286.wav,1,,,,,,,,,0,18,18,3,,1,1,0.101359128952,,,,,,,,2016_Mar_29_1623,59.9452613947,Stat_Cat_Oct,001,101,
cat/2-8-15.wav,cat/2-15-8.wav,2,,,,,,,,,0,19,19,31,,1,0,0.184713125229,,,,,,,,2016_Mar_29_1623,59.9452613947,Stat_Cat_Oct,001,101,
cat/6-18-2.wav,cat/6-2-18.wav,1,,,,,,,,,0,20,20,21,,1,1,0.0845699310303,,,,,,,,2016_Mar_29_1623,59.9452613947,Stat_Cat_Oct,001,101,
cat/2-5-13.wav,cat/2-5-16.wav,2,,,,,,,,,0,21,21,28,,2,1,0.38509106636,,,,,,,,2016_Mar_29_1623,59.9452613947,Stat_Cat_Oct,001,101,
cat/572.wav,cat/527.wav,1,,,,,,,,,0,22,22,4,,1,1,1.36929416656,,,,,,,,2016_Mar_29_1623,59.9452613947,Stat_Cat_Oct,001,101,
cat/6-17-2.wav,cat/6-2-17.wav,1,,,,,,,,,0,23,23,20,,2,0,0.350498914719,,,,,,,,2016_Mar_29_1623,59.9452613947,Stat_Cat_Oct,001,101,
cat/8-6-11.wav,cat/8-11-6.wav,2,,,,,,,,,0,24,24,23,,2,1,1.08569502831,,,,,,,,2016_Mar_29_1623,59.9452613947,Stat_Cat_Oct,001,101,
cat/2-15-7.wav,cat/2-22-7.wav,1,,,,,,,,,0,25,25,16,,2,0,0.118016004562,,,,,,,,2016_Mar_29_1623,59.9452613947,Stat_Cat_Oct,001,101,
cat/852.wav,cat/825.wav,2,,,,,,,,,0,26,26,10,,2,1,0.41831111908,,,,,,,,2016_Mar_29_1623,59.9452613947,Stat_Cat_Oct,001,101,
cat/2-23-8.wav,cat/2-14-8.wav,2,,,,,,,,,0,27,27,27,,2,1,0.333842039108,,,,,,,,2016_Mar_29_1623,59.9452613947,Stat_Cat_Oct,001,101,
cat/10-6-7.wav,cat/13-6-7.wav,1,,,,,,,,,0,28,28,12,,2,0,0.301589012146,,,,,,,,2016_Mar_29_1623,59.9452613947,Stat_Cat_Oct,001,101,
cat/5-16-2.wav,cat/5-2-16.wav,1,,,,,,,,,0,29,29,19,,2,0,0.134739875793,,,,,,,,2016_Mar_29_1623,59.9452613947,Stat_Cat_Oct,001,101,
cat/16-5-8.wav,cat/11-5-8.wav,2,,,,,,,,,0,30,30,25,,2,1,0.218043804169,,,,,,,,2016_Mar_29_1623,59.9452613947,Stat_Cat_Oct,001,101,
cat/762.wav,cat/726.wav,2,,,,,,,,,0,31,31,9,,2,1,0.11802482605,,,,,,,,2016_Mar_29_1623,59.9452613947,Stat_Cat_Oct,001,101,
cat/2-6-26.wav,cat/2-6-17.wav,2,,,,,,,,,0,32,32,18,,2,1,0.334738969803,,,,,,,,2016_Mar_29_1623,59.9452613947,Stat_Cat_Oct,001,101,
,,,,,,,,,,,,,,,,,,,,,,,,space,8.260242939,2016_Mar_29_1623,59.9452613947,Stat_Cat_Oct,001,101,
