stim1,stim2,correct,practice.thisRepN,practice.thisTrialN,practice.thisN,practice.thisIndex,ws.thisRepN,ws.thisTrialN,ws.thisN,ws.thisIndex,cat.thisRepN,cat.thisTrialN,cat.thisN,cat.thisIndex,key_resp_2.keys,key_resp_9.keys,key_resp_9.corr,key_resp_9.rt,key_resp_3.keys,key_resp_3.rt,key_resp_2.rt,key_resp_7.keys,key_resp_7.rt,date,frameRate,expName,session,participant,
prac1.wav,prac2.wav,1,0,0,0,0,,,,,,,,,None,['2'],0,[5.857527017593384],,,,,,2016_Mar_29_1724,59.930100905,Stat_Cat_Oct,001,102,
,,,,,,,,,,,,,,,,,,,space,7.35935497284,,,,2016_Mar_29_1724,59.930100905,Stat_Cat_Oct,001,102,
ws/31.wav,ws/4.wav,2,,,,,0,0,0,9,,,,,None,['2'],0,[8.00987982749939],,,,,,2016_Mar_29_1724,59.930100905,Stat_Cat_Oct,001,102,
ws/9.wav,ws/33.wav,1,,,,,0,1,1,4,,,,,None,['1'],0,[0.5850541591644287],,,,,,2016_Mar_29_1724,59.930100905,Stat_Cat_Oct,001,102,
ws/1.wav,ws/34.wav,1,,,,,0,2,2,0,,,,,['1'],None,0,,,,[2.937821865081787],,,2016_Mar_29_1724,59.930100905,Stat_Cat_Oct,001,102,
ws/22.wav,ws/4.wav,2,,,,,0,3,3,10,,,,,None,['2'],0,[0.2514040470123291],,,,,,2016_Mar_29_1724,59.930100905,Stat_Cat_Oct,001,102,
ws/1.wav,ws/10.wav,1,,,,,0,4,4,5,,,,,['2'],None,0,,,,[2.870971918106079],,,2016_Mar_29_1724,59.930100905,Stat_Cat_Oct,001,102,
ws/9.wav,ws/18.wav,1,,,,,0,5,5,3,,,,,None,['2'],0,[0.0836188793182373],,,,,,2016_Mar_29_1724,59.930100905,Stat_Cat_Oct,001,102,
ws/19.wav,ws/1.wav,2,,,,,0,6,6,6,,,,,None,['1'],0,[0.2346479892730713],,,,,,2016_Mar_29_1724,59.930100905,Stat_Cat_Oct,001,102,
ws/21.wav,ws/3.wav,2,,,,,0,7,7,8,,,,,None,['2'],0,[0.46827006340026855],,,,,,2016_Mar_29_1724,59.930100905,Stat_Cat_Oct,001,102,
ws/27.wav,ws/9.wav,2,,,,,0,8,8,11,,,,,None,['2'],0,[0.23476886749267578],,,,,,2016_Mar_29_1724,59.930100905,Stat_Cat_Oct,001,102,
ws/3.wav,ws/29.wav,1,,,,,0,9,9,1,,,,,None,['1'],0,[1.6363558769226074],,,,,,2016_Mar_29_1724,59.930100905,Stat_Cat_Oct,001,102,
ws/4.wav,ws/13.wav,1,,,,,0,10,10,2,,,,,None,['2'],0,[0.6686990261077881],,,,,,2016_Mar_29_1724,59.930100905,Stat_Cat_Oct,001,102,
ws/12.wav,ws/3.wav,2,,,,,0,11,11,7,,,,,None,['2'],0,[2.0201199054718018],,,,,,2016_Mar_29_1724,59.930100905,Stat_Cat_Oct,001,102,
,,,,,,,,,,,,,,,,,,,,,,space,23.8272471428,2016_Mar_29_1724,59.930100905,Stat_Cat_Oct,001,102,
cat/16-4-9.wav,cat/11-4-9.wav,2,,,,,,,,,0,0,0,23,,['2'],0,[1.5863361358642578],,,,,,2016_Mar_29_1724,59.930100905,Stat_Cat_Oct,001,102,
cat/3-15-9.wav,cat/3-22-9.wav,1,,,,,,,,,0,1,1,11,,['1'],0,[0.5018229484558105],,,,,,2016_Mar_29_1724,59.930100905,Stat_Cat_Oct,001,102,
cat/1-9-15.wav,cat/1-15-9.wav,2,,,,,,,,,0,2,2,22,,['1'],0,[0.36837005615234375],,,,,,2016_Mar_29_1724,59.930100905,Stat_Cat_Oct,001,102,
cat/9-4-11.wav,cat/9-11-4.wav,2,,,,,,,,,0,3,3,18,,['1'],0,[1.4530320167541504],,,,,,2016_Mar_29_1724,59.930100905,Stat_Cat_Oct,001,102,
cat/4-16-1.wav,cat/4-1-16.wav,1,,,,,,,,,0,4,4,13,,['2'],0,[0.13472509384155273],,,,,,2016_Mar_29_1724,59.930100905,Stat_Cat_Oct,001,102,
cat/1-17-9.wav,cat/1-15-9.wav,2,,,,,,,,,0,5,5,19,,['1'],0,[0.3515439033508301],,,,,,2016_Mar_29_1724,59.930100905,Stat_Cat_Oct,001,102,
cat/3-4-20.wav,cat/3-4-18.wav,2,,,,,,,,,0,6,6,25,,['2'],0,[0.9189050197601318],,,,,,2016_Mar_29_1724,59.930100905,Stat_Cat_Oct,001,102,
cat/3-13-9.wav,cat/3-9-13.wav,1,,,,,,,,,0,7,7,10,,['1'],0,[0.36722397804260254],,,,,,2016_Mar_29_1724,59.930100905,Stat_Cat_Oct,001,102,
cat/1-14-9.wav,cat/1-10-9.wav,1,,,,,,,,,0,8,8,6,,['1'],0,[0.7520961761474609],,,,,,2016_Mar_29_1724,59.930100905,Stat_Cat_Oct,001,102,
cat/10-4-9.wav,cat/13-4-9.wav,1,,,,,,,,,0,9,9,8,,['1'],0,[0.01793813705444336],,,,,,2016_Mar_29_1724,59.930100905,Stat_Cat_Oct,001,102,
cat/1-4-18.wav,cat/1-4-12.wav,1,,,,,,,,,0,10,10,7,,['2'],0,[0.16811800003051758],,,,,,2016_Mar_29_1724,59.930100905,Stat_Cat_Oct,001,102,
cat/439.wav,cat/493.wav,2,,,,,,,,,0,11,11,3,,['2'],0,[0.251615047454834],,,,,,2016_Mar_29_1724,59.930100905,Stat_Cat_Oct,001,102,
cat/25-4-9.wav,cat/12-4-9.wav,2,,,,,,,,,0,12,12,24,,['1'],0,[0.08454489707946777],,,,,,2016_Mar_29_1724,59.930100905,Stat_Cat_Oct,001,102,
cat/9-12-4.wav,cat/9-4-12.wav,1,,,,,,,,,0,13,13,16,,['2'],0,[0.2515740394592285],,,,,,2016_Mar_29_1724,59.930100905,Stat_Cat_Oct,001,102,
cat/9-10-4.wav,cat/9-4-10.wav,1,,,,,,,,,0,14,14,15,,['1'],0,[1.519592046737671],,,,,,2016_Mar_29_1724,59.930100905,Stat_Cat_Oct,001,102,
cat/914.wav,cat/941.wav,1,,,,,,,,,0,15,15,4,,['1'],0,[0.30150485038757324],,,,,,2016_Mar_29_1724,59.930100905,Stat_Cat_Oct,001,102,
cat/149.wav,cat/194.wav,1,,,,,,,,,0,16,16,0,,['2'],0,[1.185779094696045],,,,,,2016_Mar_29_1724,59.930100905,Stat_Cat_Oct,001,102,
cat/1-23-9.wav,cat/1-14-9.wav,2,,,,,,,,,0,17,17,20,,['2'],0,[1.0857279300689697],,,,,,2016_Mar_29_1724,59.930100905,Stat_Cat_Oct,001,102,
cat/11-4-9.wav,cat/21-4-9.wav,1,,,,,,,,,0,18,18,9,,['1'],0,[1.0524041652679443],,,,,,2016_Mar_29_1724,59.930100905,Stat_Cat_Oct,001,102,
cat/934.wav,cat/943.wav,1,,,,,,,,,0,19,19,5,,['1'],0,[2.9543778896331787],,,,,,2016_Mar_29_1724,59.930100905,Stat_Cat_Oct,001,102,
cat/3-9-14.wav,cat/3-14-9.wav,2,,,,,,,,,0,20,20,26,,['1'],0,[1.1690800189971924],,,,,,2016_Mar_29_1724,59.930100905,Stat_Cat_Oct,001,102,
cat/1-4-13.wav,cat/1-4-16.wav,2,,,,,,,,,0,21,21,21,,['1'],0,[0.4350440502166748],,,,,,2016_Mar_29_1724,59.930100905,Stat_Cat_Oct,001,102,
cat/394.wav,cat/349.wav,2,,,,,,,,,0,22,22,1,,None,0,,,,,,,2016_Mar_29_1724,59.930100905,Stat_Cat_Oct,001,102,
cat/4-3-17.wav,cat/4-17-3.wav,2,,,,,,,,,0,23,23,17,,['2'],0,[0.9522337913513184],,,,,,2016_Mar_29_1724,59.930100905,Stat_Cat_Oct,001,102,
cat/3-4-17.wav,cat/3-4-26.wav,1,,,,,,,,,0,24,24,12,,['1'],0,[0.6853880882263184],,,,,,2016_Mar_29_1724,59.930100905,Stat_Cat_Oct,001,102,
cat/4-18-1.wav,cat/4-1-18.wav,1,,,,,,,,,0,25,25,14,,['2'],0,[1.1525158882141113],,,,,,2016_Mar_29_1724,59.930100905,Stat_Cat_Oct,001,102,
cat/419.wav,cat/491.wav,2,,,,,,,,,0,26,26,2,,['1'],0,[1.8354790210723877],,,,,,2016_Mar_29_1724,59.930100905,Stat_Cat_Oct,001,102,
