stim1,stim2,correct,practice.thisRepN,practice.thisTrialN,practice.thisN,practice.thisIndex,ws.thisRepN,ws.thisTrialN,ws.thisN,ws.thisIndex,cat.thisRepN,cat.thisTrialN,cat.thisN,cat.thisIndex,key_resp_2.keys,key_resp_9.keys,key_resp_9.corr,key_resp_9.rt,key_resp_3.keys,key_resp_3.rt,key_resp_7.keys,key_resp_7.rt,key_resp_8.keys,key_resp_8.rt,date,frameRate,expName,session,participant,
prac1.wav,prac2.wav,1,0,0,0,0,,,,,,,,,None,['2'],0,[0.9190740585327148],,,,,,,2016_Mar_30_1235,59.934125824,Stat_Cat_Oct,001,104,
,,,,,,,,,,,,,,,,,,,space,8.96105790138,,,,,2016_Mar_30_1235,59.934125824,Stat_Cat_Oct,001,104,
ws/9.wav,ws/18.wav,1,,,,,0,0,0,3,,,,,None,['1'],0,[0.6185200214385986],,,,,,,2016_Mar_30_1235,59.934125824,Stat_Cat_Oct,001,104,
ws/22.wav,ws/4.wav,2,,,,,0,1,1,10,,,,,None,['1'],0,[1.386031150817871],,,,,,,2016_Mar_30_1235,59.934125824,Stat_Cat_Oct,001,104,
ws/4.wav,ws/13.wav,1,,,,,0,2,2,2,,,,,None,['1'],0,[1.3684680461883545],,,,,,,2016_Mar_30_1235,59.934125824,Stat_Cat_Oct,001,104,
ws/1.wav,ws/34.wav,1,,,,,0,3,3,0,,,,,None,['1'],0,[0.9020981788635254],,,,,,,2016_Mar_30_1235,59.934125824,Stat_Cat_Oct,001,104,
ws/21.wav,ws/3.wav,2,,,,,0,4,4,8,,,,,None,['2'],0,[0.31827688217163086],,,,,,,2016_Mar_30_1235,59.934125824,Stat_Cat_Oct,001,104,
ws/31.wav,ws/4.wav,2,,,,,0,5,5,9,,,,,None,['1'],0,[0.8510279655456543],,,,,,,2016_Mar_30_1235,59.934125824,Stat_Cat_Oct,001,104,
ws/27.wav,ws/9.wav,2,,,,,0,6,6,11,,,,,None,['2'],0,[0.28478193283081055],,,,,,,2016_Mar_30_1235,59.934125824,Stat_Cat_Oct,001,104,
ws/3.wav,ws/29.wav,1,,,,,0,7,7,1,,,,,None,['1'],0,[0.25192809104919434],,,,,,,2016_Mar_30_1235,59.934125824,Stat_Cat_Oct,001,104,
ws/1.wav,ws/10.wav,1,,,,,0,8,8,5,,,,,None,['1'],0,[0.5016460418701172],,,,,,,2016_Mar_30_1235,59.934125824,Stat_Cat_Oct,001,104,
ws/12.wav,ws/3.wav,2,,,,,0,9,9,7,,,,,None,"['1', '2']",0,"[0.6018698215484619, 1.43611478805542]",,,,,,,2016_Mar_30_1235,59.934125824,Stat_Cat_Oct,001,104,
ws/9.wav,ws/33.wav,1,,,,,0,10,10,4,,,,,None,['1'],0,[0.9690549373626709],,,,,,,2016_Mar_30_1235,59.934125824,Stat_Cat_Oct,001,104,
ws/19.wav,ws/1.wav,2,,,,,0,11,11,6,,,,,None,['2'],0,[1.5029211044311523],,,,,,,2016_Mar_30_1235,59.934125824,Stat_Cat_Oct,001,104,
,,,,,,,,,,,,,,,,,,,,,space,20.4735651016,,,2016_Mar_30_1235,59.934125824,Stat_Cat_Oct,001,104,
cat/419.wav,cat/491.wav,2,,,,,,,,,0,0,0,2,,['1'],0,[0.9355731010437012],,,,,,,2016_Mar_30_1235,59.934125824,Stat_Cat_Oct,001,104,
cat/1-23-9.wav,cat/1-14-9.wav,2,,,,,,,,,0,1,1,20,,['1'],0,[0.6852030754089355],,,,,,,2016_Mar_30_1235,59.934125824,Stat_Cat_Oct,001,104,
cat/4-16-1.wav,cat/4-1-16.wav,1,,,,,,,,,0,2,2,13,,['2'],0,[1.0023319721221924],,,,,,,2016_Mar_30_1235,59.934125824,Stat_Cat_Oct,001,104,
cat/934.wav,cat/943.wav,1,,,,,,,,,0,3,3,5,,['1'],0,[1.7866270542144775],,,,,,,2016_Mar_30_1235,59.934125824,Stat_Cat_Oct,001,104,
cat/10-4-9.wav,cat/13-4-9.wav,1,,,,,,,,,0,4,4,8,,['2'],0,[2.737699031829834],,,,,,,2016_Mar_30_1235,59.934125824,Stat_Cat_Oct,001,104,
cat/3-4-17.wav,cat/3-4-26.wav,1,,,,,,,,,0,5,5,12,,['1'],0,[0.652008056640625],,,,,,,2016_Mar_30_1235,59.934125824,Stat_Cat_Oct,001,104,
cat/3-13-9.wav,cat/3-9-13.wav,1,,,,,,,,,0,6,6,10,,['1'],0,[2.1368579864501953],,,,,,,2016_Mar_30_1235,59.934125824,Stat_Cat_Oct,001,104,
cat/3-15-9.wav,cat/3-22-9.wav,1,,,,,,,,,0,7,7,11,,['2'],0,[1.2693369388580322],,,,,,,2016_Mar_30_1235,59.934125824,Stat_Cat_Oct,001,104,
cat/394.wav,cat/349.wav,2,,,,,,,,,0,8,8,1,,['1'],0,[0.8188598155975342],,,,,,,2016_Mar_30_1235,59.934125824,Stat_Cat_Oct,001,104,
cat/1-4-13.wav,cat/1-4-16.wav,2,,,,,,,,,0,9,9,21,,['1'],0,[0.5184271335601807],,,,,,,2016_Mar_30_1235,59.934125824,Stat_Cat_Oct,001,104,
cat/1-14-9.wav,cat/1-10-9.wav,1,,,,,,,,,0,10,10,6,,['2'],0,[0.585223913192749],,,,,,,2016_Mar_30_1235,59.934125824,Stat_Cat_Oct,001,104,
cat/11-4-9.wav,cat/21-4-9.wav,1,,,,,,,,,0,11,11,9,,['1'],0,[0.30159997940063477],,,,,,,2016_Mar_30_1235,59.934125824,Stat_Cat_Oct,001,104,
cat/1-17-9.wav,cat/1-15-9.wav,2,,,,,,,,,0,12,12,19,,['1'],0,[0.3684661388397217],,,,,,,2016_Mar_30_1235,59.934125824,Stat_Cat_Oct,001,104,
cat/9-12-4.wav,cat/9-4-12.wav,1,,,,,,,,,0,13,13,16,,"['2', '1']",0,"[0.8022069931030273, 2.169152021408081]",,,,,,,2016_Mar_30_1235,59.934125824,Stat_Cat_Oct,001,104,
cat/149.wav,cat/194.wav,1,,,,,,,,,0,14,14,0,,['1'],0,[0.7354221343994141],,,,,,,2016_Mar_30_1235,59.934125824,Stat_Cat_Oct,001,104,
cat/4-18-1.wav,cat/4-1-18.wav,1,,,,,,,,,0,15,15,14,,['2'],0,[0.06795716285705566],,,,,,,2016_Mar_30_1235,59.934125824,Stat_Cat_Oct,001,104,
cat/914.wav,cat/941.wav,1,,,,,,,,,0,16,16,4,,['1'],0,[0.23482894897460938],,,,,,,2016_Mar_30_1235,59.934125824,Stat_Cat_Oct,001,104,
cat/4-3-17.wav,cat/4-17-3.wav,2,,,,,,,,,0,17,17,17,,['1'],0,[1.3860580921173096],,,,,,,2016_Mar_30_1235,59.934125824,Stat_Cat_Oct,001,104,
cat/3-9-14.wav,cat/3-14-9.wav,2,,,,,,,,,0,18,18,26,,['2'],0,[1.6028859615325928],,,,,,,2016_Mar_30_1235,59.934125824,Stat_Cat_Oct,001,104,
cat/1-4-18.wav,cat/1-4-12.wav,1,,,,,,,,,0,19,19,7,,['2'],0,[1.6864299774169922],,,,,,,2016_Mar_30_1235,59.934125824,Stat_Cat_Oct,001,104,
cat/1-9-15.wav,cat/1-15-9.wav,2,,,,,,,,,0,20,20,22,,['1'],0,[0.3514859676361084],,,,,,,2016_Mar_30_1235,59.934125824,Stat_Cat_Oct,001,104,
cat/16-4-9.wav,cat/11-4-9.wav,2,,,,,,,,,0,21,21,23,,['2'],0,[1.2358548641204834],,,,,,,2016_Mar_30_1235,59.934125824,Stat_Cat_Oct,001,104,
cat/25-4-9.wav,cat/12-4-9.wav,2,,,,,,,,,0,22,22,24,,['2'],0,[0.4183650016784668],,,,,,,2016_Mar_30_1235,59.934125824,Stat_Cat_Oct,001,104,
cat/9-4-11.wav,cat/9-11-4.wav,2,,,,,,,,,0,23,23,18,,['1'],0,[0.4015519618988037],,,,,,,2016_Mar_30_1235,59.934125824,Stat_Cat_Oct,001,104,
cat/9-10-4.wav,cat/9-4-10.wav,1,,,,,,,,,0,24,24,15,,['1'],0,[0.6018688678741455],,,,,,,2016_Mar_30_1235,59.934125824,Stat_Cat_Oct,001,104,
cat/3-4-20.wav,cat/3-4-18.wav,2,,,,,,,,,0,25,25,25,,"['2', '1']",0,"[0.68538498878479, 1.4027860164642334]",,,,,,,2016_Mar_30_1235,59.934125824,Stat_Cat_Oct,001,104,
cat/439.wav,cat/493.wav,2,,,,,,,,,0,26,26,3,,['1'],0,[0.6685080528259277],,,,,,,2016_Mar_30_1235,59.934125824,Stat_Cat_Oct,001,104,
,,,,,,,,,,,,,,,,,,,,,,,space,4.17248106003,2016_Mar_30_1235,59.934125824,Stat_Cat_Oct,001,104,
