stim1,stim2,correct,practice.thisRepN,practice.thisTrialN,practice.thisN,practice.thisIndex,ws.thisRepN,ws.thisTrialN,ws.thisN,ws.thisIndex,cat.thisRepN,cat.thisTrialN,cat.thisN,cat.thisIndex,key_resp_2.keys,key_resp_9.keys,key_resp_9.corr,key_resp_9.rt,key_resp_3.keys,key_resp_3.rt,key_resp_2.rt,key_resp_7.keys,key_resp_7.rt,key_resp_8.keys,key_resp_8.rt,date,frameRate,expName,session,participant,
prac1.wav,prac2.wav,1,0,0,0,0,,,,,,,,,None,"['2', '2']",0,"[10.596163988113403, 10.66275405883789]",,,,,,,,2016_Aug_04_1330,59.9405496867,Stat_Cat_Oct,001,126,
,,,,,,,,,,,,,,,,,,,space,16.2020831108,,,,,,2016_Aug_04_1330,59.9405496867,Stat_Cat_Oct,001,126,
ws/22.wav,ws/4.wav,2,,,,,0,0,0,10,,,,,None,['2'],0,[2.7207529544830322],,,,,,,,2016_Aug_04_1330,59.9405496867,Stat_Cat_Oct,001,126,
ws/4.wav,ws/13.wav,1,,,,,0,1,1,2,,,,,None,['2'],0,[1.6863081455230713],,,,,,,,2016_Aug_04_1330,59.9405496867,Stat_Cat_Oct,001,126,
ws/1.wav,ws/10.wav,1,,,,,0,2,2,5,,,,,['1'],['1'],0,[0.25139784812927246],,,[2.4872231483459473],,,,,2016_Aug_04_1330,59.9405496867,Stat_Cat_Oct,001,126,
ws/9.wav,ws/33.wav,1,,,,,0,3,3,4,,,,,None,['2'],0,[0.335040807723999],,,,,,,,2016_Aug_04_1330,59.9405496867,Stat_Cat_Oct,001,126,
ws/27.wav,ws/9.wav,2,,,,,0,4,4,11,,,,,None,['1'],0,[0.06794214248657227],,,,,,,,2016_Aug_04_1330,59.9405496867,Stat_Cat_Oct,001,126,
ws/3.wav,ws/29.wav,1,,,,,0,5,5,1,,,,,['2'],['2'],0,[0.9854598045349121],,,[2.8709800243377686],,,,,2016_Aug_04_1330,59.9405496867,Stat_Cat_Oct,001,126,
ws/19.wav,ws/1.wav,2,,,,,0,6,6,6,,,,,None,['1'],0,[0.5018818378448486],,,,,,,,2016_Aug_04_1330,59.9405496867,Stat_Cat_Oct,001,126,
ws/9.wav,ws/18.wav,1,,,,,0,7,7,3,,,,,None,['2'],0,[1.653075933456421],,,,,,,,2016_Aug_04_1330,59.9405496867,Stat_Cat_Oct,001,126,
ws/31.wav,ws/4.wav,2,,,,,0,8,8,9,,,,,None,['2'],0,[1.7698099613189697],,,,,,,,2016_Aug_04_1330,59.9405496867,Stat_Cat_Oct,001,126,
ws/12.wav,ws/3.wav,2,,,,,0,9,9,7,,,,,None,['1'],0,[0.2849540710449219],,,,,,,,2016_Aug_04_1330,59.9405496867,Stat_Cat_Oct,001,126,
ws/21.wav,ws/3.wav,2,,,,,0,10,10,8,,,,,None,['2'],0,[1.3192389011383057],,,,,,,,2016_Aug_04_1330,59.9405496867,Stat_Cat_Oct,001,126,
ws/1.wav,ws/34.wav,1,,,,,0,11,11,0,,,,,None,['1'],0,[0.31824803352355957],,,,,,,,2016_Aug_04_1330,59.9405496867,Stat_Cat_Oct,001,126,
,,,,,,,,,,,,,,,,,,,,,,space,33.3027701378,,,2016_Aug_04_1330,59.9405496867,Stat_Cat_Oct,001,126,
cat/3-4-17.wav,cat/3-4-26.wav,1,,,,,,,,,0,0,0,12,,['2'],0,[2.187041997909546],,,,,,,,2016_Aug_04_1330,59.9405496867,Stat_Cat_Oct,001,126,
cat/9-4-11.wav,cat/9-11-4.wav,2,,,,,,,,,0,1,1,18,,['1'],0,[1.0357260704040527],,,,,,,,2016_Aug_04_1330,59.9405496867,Stat_Cat_Oct,001,126,
cat/1-17-9.wav,cat/1-15-9.wav,2,,,,,,,,,0,2,2,19,,['2'],0,[0.8356068134307861],,,,,,,,2016_Aug_04_1330,59.9405496867,Stat_Cat_Oct,001,126,
cat/4-18-1.wav,cat/4-1-18.wav,1,,,,,,,,,0,3,3,14,,['2'],0,[0.5519261360168457],,,,,,,,2016_Aug_04_1330,59.9405496867,Stat_Cat_Oct,001,126,
cat/11-4-9.wav,cat/21-4-9.wav,1,,,,,,,,,0,4,4,9,,['1'],0,[3.0212180614471436],,,,,,,,2016_Aug_04_1330,59.9405496867,Stat_Cat_Oct,001,126,
cat/9-10-4.wav,cat/9-4-10.wav,1,,,,,,,,,0,5,5,15,,['2'],0,[1.0513501167297363],,,,,,,,2016_Aug_04_1330,59.9405496867,Stat_Cat_Oct,001,126,
cat/16-4-9.wav,cat/11-4-9.wav,2,,,,,,,,,0,6,6,23,,['1'],0,[0.8688170909881592],,,,,,,,2016_Aug_04_1330,59.9405496867,Stat_Cat_Oct,001,126,
cat/439.wav,cat/493.wav,2,,,,,,,,,0,7,7,3,,['2'],0,[0.451632022857666],,,,,,,,2016_Aug_04_1330,59.9405496867,Stat_Cat_Oct,001,126,
cat/419.wav,cat/491.wav,2,,,,,,,,,0,8,8,2,,['1'],0,[0.26833391189575195],,,,,,,,2016_Aug_04_1330,59.9405496867,Stat_Cat_Oct,001,126,
cat/149.wav,cat/194.wav,1,,,,,,,,,0,9,9,0,,['2'],0,[0.401777982711792],,,,,,,,2016_Aug_04_1330,59.9405496867,Stat_Cat_Oct,001,126,
cat/1-4-18.wav,cat/1-4-12.wav,1,,,,,,,,,0,10,10,7,,['2'],0,[0.4684560298919678],,,,,,,,2016_Aug_04_1330,59.9405496867,Stat_Cat_Oct,001,126,
cat/3-15-9.wav,cat/3-22-9.wav,1,,,,,,,,,0,11,11,11,,['1'],0,[0.1679999828338623],,,,,,,,2016_Aug_04_1330,59.9405496867,Stat_Cat_Oct,001,126,
cat/4-3-17.wav,cat/4-17-3.wav,2,,,,,,,,,0,12,12,17,,['2'],0,[0.4182431697845459],,,,,,,,2016_Aug_04_1330,59.9405496867,Stat_Cat_Oct,001,126,
cat/1-9-15.wav,cat/1-15-9.wav,2,,,,,,,,,0,13,13,22,,['1'],0,[1.1848180294036865],,,,,,,,2016_Aug_04_1330,59.9405496867,Stat_Cat_Oct,001,126,
cat/1-23-9.wav,cat/1-14-9.wav,2,,,,,,,,,0,14,14,20,,['2'],0,[0.46843791007995605],,,,,,,,2016_Aug_04_1330,59.9405496867,Stat_Cat_Oct,001,126,
cat/10-4-9.wav,cat/13-4-9.wav,1,,,,,,,,,0,15,15,8,,['2'],0,[0.30176687240600586],,,,,,,,2016_Aug_04_1330,59.9405496867,Stat_Cat_Oct,001,126,
cat/1-14-9.wav,cat/1-10-9.wav,1,,,,,,,,,0,16,16,6,,['1'],0,[0.2515091896057129],,,,,,,,2016_Aug_04_1330,59.9405496867,Stat_Cat_Oct,001,126,
cat/25-4-9.wav,cat/12-4-9.wav,2,,,,,,,,,0,17,17,24,,['2'],0,[0.3348860740661621],,,,,,,,2016_Aug_04_1330,59.9405496867,Stat_Cat_Oct,001,126,
cat/914.wav,cat/941.wav,1,,,,,,,,,0,18,18,4,,['2'],0,[0.13474702835083008],,,,,,,,2016_Aug_04_1330,59.9405496867,Stat_Cat_Oct,001,126,
cat/4-16-1.wav,cat/4-1-16.wav,1,,,,,,,,,0,19,19,13,,['2'],0,[0.4016909599304199],,,,,,,,2016_Aug_04_1330,59.9405496867,Stat_Cat_Oct,001,126,
cat/3-13-9.wav,cat/3-9-13.wav,1,,,,,,,,,0,20,20,10,,['2'],0,[0.4016730785369873],,,,,,,,2016_Aug_04_1330,59.9405496867,Stat_Cat_Oct,001,126,
cat/3-4-20.wav,cat/3-4-18.wav,2,,,,,,,,,0,21,21,25,,['1'],0,[0.2514050006866455],,,,,,,,2016_Aug_04_1330,59.9405496867,Stat_Cat_Oct,001,126,
cat/9-12-4.wav,cat/9-4-12.wav,1,,,,,,,,,0,22,22,16,,['2'],0,[0.451732873916626],,,,,,,,2016_Aug_04_1330,59.9405496867,Stat_Cat_Oct,001,126,
cat/1-4-13.wav,cat/1-4-16.wav,2,,,,,,,,,0,23,23,21,,['2'],0,[0.9355251789093018],,,,,,,,2016_Aug_04_1330,59.9405496867,Stat_Cat_Oct,001,126,
cat/394.wav,cat/349.wav,2,,,,,,,,,0,24,24,1,,['1'],0,[0.2681150436401367],,,,,,,,2016_Aug_04_1330,59.9405496867,Stat_Cat_Oct,001,126,
cat/3-9-14.wav,cat/3-14-9.wav,2,,,,,,,,,0,25,25,26,,['1'],0,[1.8532078266143799],,,,,,,,2016_Aug_04_1330,59.9405496867,Stat_Cat_Oct,001,126,
cat/934.wav,cat/943.wav,1,,,,,,,,,0,26,26,5,,['2'],0,[1.5195791721343994],,,,,,,,2016_Aug_04_1330,59.9405496867,Stat_Cat_Oct,001,126,
,,,,,,,,,,,,,,,,,,,,,,,,space,12.2480170727,2016_Aug_04_1330,59.9405496867,Stat_Cat_Oct,001,126,
