Unnamed: 29,Unnamed: 30,Unnamed: 31,cat.thisIndex,cat.thisN,cat.thisRepN,cat.thisTrialN,correct,date,expName,frameRate,key_resp_2.keys,key_resp_2.rt,key_resp_3.keys,key_resp_3.rt,key_resp_7.keys,key_resp_7.rt,key_resp_8.keys,key_resp_8.rt,key_resp_9.corr,key_resp_9.keys,key_resp_9.rt,participant,practice.thisIndex,practice.thisN,practice.thisRepN,practice.thisTrialN,session,stim1,stim2,ws.thisIndex,ws.thisN,ws.thisRepN,ws.thisTrialN
,,,,,,,1.0,2016_Mar_29_1328,Stat_Cat_Oct,59.9021127032,None,,,,,,,,0.0,['2'],[7.389832973480225],100,0.0,0.0,0.0,0.0,1,prac1.wav,prac2.wav,,,,
,,,,,,,,2016_Mar_29_1328,Stat_Cat_Oct,59.9021127032,,,space,5.48235082626,,,,,,,,100,,,,,1,,,,,,
,,,,,,,2.0,2016_Mar_29_1328,Stat_Cat_Oct,59.9021127032,None,,,,,,,,0.0,['1'],[1.4881348609924316],100,,,,,1,ws/31.wav,ws/4.wav,9.0,0.0,0.0,0.0
,,,,,,,1.0,2016_Mar_29_1328,Stat_Cat_Oct,59.9021127032,None,,,,,,,,0.0,['2'],[1.4887161254882812],100,,,,,1,ws/1.wav,ws/34.wav,0.0,1.0,0.0,1.0
,,,,,,,2.0,2016_Mar_29_1328,Stat_Cat_Oct,59.9021127032,None,,,,,,,,0.0,['1'],[1.7395150661468506],100,,,,,1,ws/21.wav,ws/3.wav,8.0,2.0,0.0,2.0
,,,,,,,2.0,2016_Mar_29_1328,Stat_Cat_Oct,59.9021127032,None,,,,,,,,0.0,['2'],[0.5859329700469971],100,,,,,1,ws/27.wav,ws/9.wav,11.0,3.0,0.0,3.0
,,,,,,,2.0,2016_Mar_29_1328,Stat_Cat_Oct,59.9021127032,None,,,,,,,,0.0,['2'],[0.952477216720581],100,,,,,1,ws/12.wav,ws/3.wav,7.0,4.0,0.0,4.0
,,,,,,,2.0,2016_Mar_29_1328,Stat_Cat_Oct,59.9021127032,None,,,,,,,,0.0,['1'],[0.11785006523132324],100,,,,,1,ws/22.wav,ws/4.wav,10.0,5.0,0.0,5.0
,,,,,,,1.0,2016_Mar_29_1328,Stat_Cat_Oct,59.9021127032,None,,,,,,,,0.0,['1'],[1.5050430297851562],100,,,,,1,ws/9.wav,ws/33.wav,4.0,6.0,0.0,6.0
,,,,,,,1.0,2016_Mar_29_1328,Stat_Cat_Oct,59.9021127032,None,,,,,,,,0.0,['1'],[1.922226905822754],100,,,,,1,ws/1.wav,ws/10.wav,5.0,7.0,0.0,7.0
,,,,,,,2.0,2016_Mar_29_1328,Stat_Cat_Oct,59.9021127032,None,,,,,,,,0.0,['2'],[2.273529052734375],100,,,,,1,ws/19.wav,ws/1.wav,6.0,8.0,0.0,8.0
,,,,,,,1.0,2016_Mar_29_1328,Stat_Cat_Oct,59.9021127032,None,,,,,,,,0.0,['1'],[1.5214190483093262],100,,,,,1,ws/9.wav,ws/18.wav,3.0,9.0,0.0,9.0
,,,,,,,1.0,2016_Mar_29_1328,Stat_Cat_Oct,59.9021127032,None,,,,,,,,0.0,['1'],[1.5383520126342773],100,,,,,1,ws/3.wav,ws/29.wav,1.0,10.0,0.0,10.0
,,,,,,,1.0,2016_Mar_29_1328,Stat_Cat_Oct,59.9021127032,None,,,,,,,,0.0,['2'],[0.5361349582672119],100,,,,,1,ws/4.wav,ws/13.wav,2.0,11.0,0.0,11.0
,,,,,,,,2016_Mar_29_1328,Stat_Cat_Oct,59.9021127032,,,,,space,29.3343200684,,,,,,100,,,,,1,,,,,,
,,,21.0,0.0,0.0,0.0,2.0,2016_Mar_29_1328,Stat_Cat_Oct,59.9021127032,,,,,,,,,0.0,['1'],[2.240931987762451],100,,,,,1,cat/1-4-13.wav,cat/1-4-16.wav,,,,
,,,16.0,1.0,0.0,1.0,1.0,2016_Mar_29_1328,Stat_Cat_Oct,59.9021127032,,,,,,,,,0.0,['2'],[0.551063060760498],100,,,,,1,cat/9-12-4.wav,cat/9-4-12.wav,,,,
,,,22.0,2.0,0.0,2.0,2.0,2016_Mar_29_1328,Stat_Cat_Oct,59.9021127032,,,,,,,,,0.0,['2'],[0.5696859359741211],100,,,,,1,cat/1-9-15.wav,cat/1-15-9.wav,,,,
,,,2.0,3.0,0.0,3.0,2.0,2016_Mar_29_1328,Stat_Cat_Oct,59.9021127032,,,,,,,,,0.0,['2'],[1.1704621315002441],100,,,,,1,cat/419.wav,cat/491.wav,,,,
,,,0.0,4.0,0.0,4.0,1.0,2016_Mar_29_1328,Stat_Cat_Oct,59.9021127032,,,,,,,,,0.0,['2'],[1.6897530555725098],100,,,,,1,cat/149.wav,cat/194.wav,,,,
,,,23.0,5.0,0.0,5.0,2.0,2016_Mar_29_1328,Stat_Cat_Oct,59.9021127032,,,,,,,,,0.0,['2'],[1.4371850490570068],100,,,,,1,cat/16-4-9.wav,cat/11-4-9.wav,,,,
,,,8.0,6.0,0.0,6.0,1.0,2016_Mar_29_1328,Stat_Cat_Oct,59.9021127032,,,,,,,,,0.0,['1'],[0.6033849716186523],100,,,,,1,cat/10-4-9.wav,cat/13-4-9.wav,,,,
,,,19.0,7.0,0.0,7.0,2.0,2016_Mar_29_1328,Stat_Cat_Oct,59.9021127032,,,,,,,,,0.0,['2'],[0.3343329429626465],100,,,,,1,cat/1-17-9.wav,cat/1-15-9.wav,,,,
,,,14.0,8.0,0.0,8.0,1.0,2016_Mar_29_1328,Stat_Cat_Oct,59.9021127032,,,,,,,,,0.0,['1'],[1.5887980461120605],100,,,,,1,cat/4-18-1.wav,cat/4-1-18.wav,,,,
,,,6.0,9.0,0.0,9.0,1.0,2016_Mar_29_1328,Stat_Cat_Oct,59.9021127032,,,,,,,,,0.0,['2'],[1.8058018684387207],100,,,,,1,cat/1-14-9.wav,cat/1-10-9.wav,,,,
,,,10.0,10.0,0.0,10.0,1.0,2016_Mar_29_1328,Stat_Cat_Oct,59.9021127032,,,,,,,,,0.0,['2'],[1.8392961025238037],100,,,,,1,cat/3-13-9.wav,cat/3-9-13.wav,,,,
,,,3.0,11.0,0.0,11.0,2.0,2016_Mar_29_1328,Stat_Cat_Oct,59.9021127032,,,,,,,,,0.0,['1'],[0.08356499671936035],100,,,,,1,cat/439.wav,cat/493.wav,,,,
,,,13.0,12.0,0.0,12.0,1.0,2016_Mar_29_1328,Stat_Cat_Oct,59.9021127032,,,,,,,,,0.0,['1'],[2.090500831604004],100,,,,,1,cat/4-16-1.wav,cat/4-1-16.wav,,,,
,,,4.0,13.0,0.0,13.0,1.0,2016_Mar_29_1328,Stat_Cat_Oct,59.9021127032,,,,,,,,,0.0,['1'],[0.8702700138092041],100,,,,,1,cat/914.wav,cat/941.wav,,,,
,,,15.0,14.0,0.0,14.0,1.0,2016_Mar_29_1328,Stat_Cat_Oct,59.9021127032,,,,,,,,,0.0,['2'],[3.4936277866363525],100,,,,,1,cat/9-10-4.wav,cat/9-4-10.wav,,,,
,,,7.0,15.0,0.0,15.0,1.0,2016_Mar_29_1328,Stat_Cat_Oct,59.9021127032,,,,,,,,,0.0,['2'],[0.7859327793121338],100,,,,,1,cat/1-4-18.wav,cat/1-4-12.wav,,,,
,,,24.0,16.0,0.0,16.0,2.0,2016_Mar_29_1328,Stat_Cat_Oct,59.9021127032,,,,,,,,,0.0,['2'],[1.020470142364502],100,,,,,1,cat/25-4-9.wav,cat/12-4-9.wav,,,,
,,,20.0,17.0,0.0,17.0,2.0,2016_Mar_29_1328,Stat_Cat_Oct,59.9021127032,,,,,,,,,0.0,['1'],[0.8347699642181396],100,,,,,1,cat/1-23-9.wav,cat/1-14-9.wav,,,,
,,,9.0,18.0,0.0,18.0,1.0,2016_Mar_29_1328,Stat_Cat_Oct,59.9021127032,,,,,,,,,0.0,['2'],[1.1031079292297363],100,,,,,1,cat/11-4-9.wav,cat/21-4-9.wav,,,,
,,,17.0,19.0,0.0,19.0,2.0,2016_Mar_29_1328,Stat_Cat_Oct,59.9021127032,,,,,,,,,0.0,['1'],[1.4552321434020996],100,,,,,1,cat/4-3-17.wav,cat/4-17-3.wav,,,,
,,,5.0,20.0,0.0,20.0,1.0,2016_Mar_29_1328,Stat_Cat_Oct,59.9021127032,,,,,,,,,0.0,['2'],[0.3010871410369873],100,,,,,1,cat/934.wav,cat/943.wav,,,,
,,,1.0,21.0,0.0,21.0,2.0,2016_Mar_29_1328,Stat_Cat_Oct,59.9021127032,,,,,,,,,0.0,['1'],[0.25128698348999023],100,,,,,1,cat/394.wav,cat/349.wav,,,,
,,,12.0,22.0,0.0,22.0,1.0,2016_Mar_29_1328,Stat_Cat_Oct,59.9021127032,,,,,,,,,0.0,['1'],[0.3686671257019043],100,,,,,1,cat/3-4-17.wav,cat/3-4-26.wav,,,,
,,,18.0,23.0,0.0,23.0,2.0,2016_Mar_29_1328,Stat_Cat_Oct,59.9021127032,,,,,,,,,0.0,['1'],[0.7524380683898926],100,,,,,1,cat/9-4-11.wav,cat/9-11-4.wav,,,,
,,,26.0,24.0,0.0,24.0,2.0,2016_Mar_29_1328,Stat_Cat_Oct,59.9021127032,,,,,,,,,0.0,['1'],[1.1706619262695312],100,,,,,1,cat/3-9-14.wav,cat/3-14-9.wav,,,,
,,,25.0,25.0,0.0,25.0,2.0,2016_Mar_29_1328,Stat_Cat_Oct,59.9021127032,,,,,,,,,0.0,['2'],[0.4516758918762207],100,,,,,1,cat/3-4-20.wav,cat/3-4-18.wav,,,,
,,,11.0,26.0,0.0,26.0,1.0,2016_Mar_29_1328,Stat_Cat_Oct,59.9021127032,,,,,,,,,0.0,['2'],[0.9533929824829102],100,,,,,1,cat/3-15-9.wav,cat/3-22-9.wav,,,,
,,,,,,,,2016_Mar_29_1328,Stat_Cat_Oct,59.9021127032,,,,,,,space,73.0876729488,,,,100,,,,,1,,,,,,
,,,,,,,1.0,2016_Mar_29_1623,Stat_Cat_Oct,59.9452613947,None,,,,,,,,1.0,1,0.368338823318,101,0.0,0.0,0.0,0.0,1,prac1.wav,prac2.wav,,,,
,,,,,,,,2016_Mar_29_1623,Stat_Cat_Oct,59.9452613947,,,space,3.95572304726,,,,,,,,101,,,,,1,,,,,,
,,,,,,,2.0,2016_Mar_29_1623,Stat_Cat_Oct,59.9452613947,None,,,,,,,,0.0,1,5.09011697769,101,,,,,1,ws/15.wav,ws/6.wav,8.0,0.0,0.0,0.0
,,,,,,,2.0,2016_Mar_29_1623,Stat_Cat_Oct,59.9452613947,None,,,,,,,,1.0,2,3.7552111148800003,101,,,,,1,ws/28.wav,ws/7.wav,13.0,1.0,0.0,1.0
,,,,,,,1.0,2016_Mar_29_1623,Stat_Cat_Oct,59.9452613947,None,,,,,,,,1.0,1,2.2536129951499997,101,,,,,1,ws/7.wav,ws/16.wav,6.0,2.0,0.0,2.0
,,,,,,,1.0,2016_Mar_29_1623,Stat_Cat_Oct,59.9452613947,['2'],[2.6698050498962402],,,,,,,0.0,2,0.651822805405,101,,,,,1,ws/5.wav,ws/14.wav,2.0,3.0,0.0,3.0
,,,,,,,2.0,2016_Mar_29_1623,Stat_Cat_Oct,59.9452613947,None,,,,,,,,0.0,1,0.00122809410095,101,,,,,1,ws/23.wav,ws/5.wav,10.0,4.0,0.0,4.0
,,,,,,,1.0,2016_Mar_29_1623,Stat_Cat_Oct,59.9452613947,['1'],[2.87096905708313],,,,,,,1.0,1,0.585192918777,101,,,,,1,ws/2.wav,ws/11.wav,0.0,5.0,0.0,5.0
,,,,,,,2.0,2016_Mar_29_1623,Stat_Cat_Oct,59.9452613947,['1'],[2.620626926422119],,,,,,,0.0,1,0.117831945419,101,,,,,1,ws/25.wav,ws/7.wav,11.0,6.0,0.0,6.0
,,,,,,,1.0,2016_Mar_29_1623,Stat_Cat_Oct,59.9452613947,['2'],[2.620767831802368],,,,,,,0.0,2,0.18449401855500003,101,,,,,1,ws/8.wav,ws/26.wav,7.0,7.0,0.0,7.0
,,,,,,,1.0,2016_Mar_29_1623,Stat_Cat_Oct,59.9452613947,None,,,,,,,,1.0,1,0.35154294967699995,101,,,,,1,ws/5.wav,ws/36.wav,3.0,8.0,0.0,8.0
,,,,,,,2.0,2016_Mar_29_1623,Stat_Cat_Oct,59.9452613947,['1'],[2.78764009475708],,,,,,,0.0,1,0.33483695983899997,101,,,,,1,ws/35.wav,ws/8.wav,14.0,9.0,0.0,9.0
,,,,,,,2.0,2016_Mar_29_1623,Stat_Cat_Oct,59.9452613947,None,,,,,,,,1.0,2,0.301516056061,101,,,,,1,ws/30.wav,ws/2.wav,12.0,10.0,0.0,10.0
,,,,,,,1.0,2016_Mar_29_1623,Stat_Cat_Oct,59.9452613947,None,,,,,,,,1.0,1,0.20150399208099998,101,,,,,1,ws/2.wav,ws/20.wav,1.0,11.0,0.0,11.0
,,,,,,,2.0,2016_Mar_29_1623,Stat_Cat_Oct,59.9452613947,None,,,,,,,,0.0,1,0.585056066513,101,,,,,1,ws/17.wav,ws/8.wav,9.0,12.0,0.0,12.0
,,,,,,,1.0,2016_Mar_29_1623,Stat_Cat_Oct,59.9452613947,None,,,,,,,,1.0,1,0.218065023422,101,,,,,1,ws/6.wav,ws/24.wav,5.0,13.0,0.0,13.0
,,,,,,,1.0,2016_Mar_29_1623,Stat_Cat_Oct,59.9452613947,None,,,,,,,,1.0,1,0.134740114212,101,,,,,1,ws/6.wav,ws/32.wav,4.0,14.0,0.0,14.0
,,,,,,,,2016_Mar_29_1623,Stat_Cat_Oct,59.9452613947,,,,,space,6.54162192345,,,,,,101,,,,,1,,,,,,
,,,14.0,0.0,0.0,0.0,1.0,2016_Mar_29_1623,Stat_Cat_Oct,59.9452613947,,,,,,,,,1.0,1,3.25483083725,101,,,,,1,cat/2-13-8.wav,cat/2-8-13.wav,,,,
,,,6.0,1.0,0.0,1.0,2.0,2016_Mar_29_1623,Stat_Cat_Oct,59.9452613947,,,,,,,,,0.0,1,2.23693394661,101,,,,,1,cat/627.wav,cat/672.wav,,,,
,,,17.0,2.0,0.0,2.0,1.0,2016_Mar_29_1623,Stat_Cat_Oct,59.9452613947,,,,,,,,,1.0,1,2.7876119613599997,101,,,,,1,cat/2-5-18.wav,cat/2-5-12.wav,,,,
,,,0.0,3.0,0.0,3.0,1.0,2016_Mar_29_1623,Stat_Cat_Oct,59.9452613947,,,,,,,,,1.0,1,0.251714944839,101,,,,,1,cat/257.wav,cat/275.wav,,,,
,,,29.0,4.0,0.0,4.0,2.0,2016_Mar_29_1623,Stat_Cat_Oct,59.9452613947,,,,,,,,,0.0,1,1.20264601707,101,,,,,1,cat/2-6-20.wav,cat/2-6-18.wav,,,,
,,,8.0,5.0,0.0,5.0,1.0,2016_Mar_29_1623,Stat_Cat_Oct,59.9452613947,,,,,,,,,1.0,1,0.468455076218,101,,,,,1,cat/725.wav,cat/752.wav,,,,
,,,26.0,6.0,0.0,6.0,2.0,2016_Mar_29_1623,Stat_Cat_Oct,59.9452613947,,,,,,,,,0.0,1,0.451701879501,101,,,,,1,cat/2-17-7.wav,cat/2-15-7.wav,,,,
,,,11.0,7.0,0.0,7.0,1.0,2016_Mar_29_1623,Stat_Cat_Oct,59.9452613947,,,,,,,,,1.0,1,0.5685689449310001,101,,,,,1,cat/826.wav,cat/862.wav,,,,
,,,22.0,8.0,0.0,8.0,2.0,2016_Mar_29_1623,Stat_Cat_Oct,59.9452613947,,,,,,,,,1.0,2,1.10234999657,101,,,,,1,cat/7-5-10.wav,cat/7-10-5.wav,,,,
,,,24.0,9.0,0.0,9.0,1.0,2016_Mar_29_1623,Stat_Cat_Oct,59.9452613947,,,,,,,,,1.0,1,0.485131978989,101,,,,,1,cat/8-12-5.wav,cat/8-5-12.wav,,,,
,,,2.0,10.0,0.0,10.0,2.0,2016_Mar_29_1623,Stat_Cat_Oct,59.9452613947,,,,,,,,,0.0,1,0.43488287925700003,101,,,,,1,cat/276.wav,cat/267.wav,,,,
,,,13.0,11.0,0.0,11.0,1.0,2016_Mar_29_1623,Stat_Cat_Oct,59.9452613947,,,,,,,,,0.0,2,0.017915010452299998,101,,,,,1,cat/11-5-7.wav,cat/21-5-7.wav,,,,
,,,15.0,12.0,0.0,12.0,1.0,2016_Mar_29_1623,Stat_Cat_Oct,59.9452613947,,,,,,,,,1.0,1,0.351505994797,101,,,,,1,cat/2-14-8.wav,cat/2-10-8.wav,,,,
,,,32.0,13.0,0.0,13.0,2.0,2016_Mar_29_1623,Stat_Cat_Oct,59.9452613947,,,,,,,,,0.0,1,0.05136990547180001,101,,,,,1,cat/25-5-8.wav,cat/12-5-8.wav,,,,
,,,7.0,14.0,0.0,14.0,1.0,2016_Mar_29_1623,Stat_Cat_Oct,59.9452613947,,,,,,,,,0.0,None,,101,,,,,1,cat/682.wav,cat/628.wav,,,,
,,,5.0,15.0,0.0,15.0,2.0,2016_Mar_29_1623,Stat_Cat_Oct,59.9452613947,,,,,,,,,1.0,2,0.301549911499,101,,,,,1,cat/528.wav,cat/582.wav,,,,
,,,30.0,16.0,0.0,16.0,2.0,2016_Mar_29_1623,Stat_Cat_Oct,59.9452613947,,,,,,,,,1.0,2,0.38497185707099996,101,,,,,1,cat/2-7-14.wav,cat/2-14-7.wav,,,,
,,,1.0,17.0,0.0,17.0,2.0,2016_Mar_29_1623,Stat_Cat_Oct,59.9452613947,,,,,,,,,1.0,2,0.151489973068,101,,,,,1,cat/285.wav,cat/258.wav,,,,
,,,3.0,18.0,0.0,18.0,1.0,2016_Mar_29_1623,Stat_Cat_Oct,59.9452613947,,,,,,,,,1.0,1,0.10135912895199999,101,,,,,1,cat/268.wav,cat/286.wav,,,,
,,,31.0,19.0,0.0,19.0,2.0,2016_Mar_29_1623,Stat_Cat_Oct,59.9452613947,,,,,,,,,0.0,1,0.184713125229,101,,,,,1,cat/2-8-15.wav,cat/2-15-8.wav,,,,
,,,21.0,20.0,0.0,20.0,1.0,2016_Mar_29_1623,Stat_Cat_Oct,59.9452613947,,,,,,,,,1.0,1,0.0845699310303,101,,,,,1,cat/6-18-2.wav,cat/6-2-18.wav,,,,
,,,28.0,21.0,0.0,21.0,2.0,2016_Mar_29_1623,Stat_Cat_Oct,59.9452613947,,,,,,,,,1.0,2,0.38509106636,101,,,,,1,cat/2-5-13.wav,cat/2-5-16.wav,,,,
,,,4.0,22.0,0.0,22.0,1.0,2016_Mar_29_1623,Stat_Cat_Oct,59.9452613947,,,,,,,,,1.0,1,1.3692941665600002,101,,,,,1,cat/572.wav,cat/527.wav,,,,
,,,20.0,23.0,0.0,23.0,1.0,2016_Mar_29_1623,Stat_Cat_Oct,59.9452613947,,,,,,,,,0.0,2,0.350498914719,101,,,,,1,cat/6-17-2.wav,cat/6-2-17.wav,,,,
,,,23.0,24.0,0.0,24.0,2.0,2016_Mar_29_1623,Stat_Cat_Oct,59.9452613947,,,,,,,,,1.0,2,1.08569502831,101,,,,,1,cat/8-6-11.wav,cat/8-11-6.wav,,,,
,,,16.0,25.0,0.0,25.0,1.0,2016_Mar_29_1623,Stat_Cat_Oct,59.9452613947,,,,,,,,,0.0,2,0.118016004562,101,,,,,1,cat/2-15-7.wav,cat/2-22-7.wav,,,,
,,,10.0,26.0,0.0,26.0,2.0,2016_Mar_29_1623,Stat_Cat_Oct,59.9452613947,,,,,,,,,1.0,2,0.41831111908,101,,,,,1,cat/852.wav,cat/825.wav,,,,
,,,27.0,27.0,0.0,27.0,2.0,2016_Mar_29_1623,Stat_Cat_Oct,59.9452613947,,,,,,,,,1.0,2,0.333842039108,101,,,,,1,cat/2-23-8.wav,cat/2-14-8.wav,,,,
,,,12.0,28.0,0.0,28.0,1.0,2016_Mar_29_1623,Stat_Cat_Oct,59.9452613947,,,,,,,,,0.0,2,0.301589012146,101,,,,,1,cat/10-6-7.wav,cat/13-6-7.wav,,,,
,,,19.0,29.0,0.0,29.0,1.0,2016_Mar_29_1623,Stat_Cat_Oct,59.9452613947,,,,,,,,,0.0,2,0.13473987579299998,101,,,,,1,cat/5-16-2.wav,cat/5-2-16.wav,,,,
,,,25.0,30.0,0.0,30.0,2.0,2016_Mar_29_1623,Stat_Cat_Oct,59.9452613947,,,,,,,,,1.0,2,0.21804380416900002,101,,,,,1,cat/16-5-8.wav,cat/11-5-8.wav,,,,
,,,9.0,31.0,0.0,31.0,2.0,2016_Mar_29_1623,Stat_Cat_Oct,59.9452613947,,,,,,,,,1.0,2,0.11802482605,101,,,,,1,cat/762.wav,cat/726.wav,,,,
,,,18.0,32.0,0.0,32.0,2.0,2016_Mar_29_1623,Stat_Cat_Oct,59.9452613947,,,,,,,,,1.0,2,0.334738969803,101,,,,,1,cat/2-6-26.wav,cat/2-6-17.wav,,,,
,,,,,,,,2016_Mar_29_1623,Stat_Cat_Oct,59.9452613947,,,,,,,space,8.260242939,,,,101,,,,,1,,,,,,
,,,,,,,1.0,2016_Mar_29_1724,Stat_Cat_Oct,59.930100905,None,,,,,,,,0.0,['2'],[5.857527017593384],102,0.0,0.0,0.0,0.0,1,prac1.wav,prac2.wav,,,,
,,,,,,,,2016_Mar_29_1724,Stat_Cat_Oct,59.930100905,,,space,7.35935497284,,,,,,,,102,,,,,1,,,,,,
,,,,,,,2.0,2016_Mar_29_1724,Stat_Cat_Oct,59.930100905,None,,,,,,,,0.0,['2'],[8.00987982749939],102,,,,,1,ws/31.wav,ws/4.wav,9.0,0.0,0.0,0.0
,,,,,,,1.0,2016_Mar_29_1724,Stat_Cat_Oct,59.930100905,None,,,,,,,,0.0,['1'],[0.5850541591644287],102,,,,,1,ws/9.wav,ws/33.wav,4.0,1.0,0.0,1.0
,,,,,,,1.0,2016_Mar_29_1724,Stat_Cat_Oct,59.930100905,['1'],[2.937821865081787],,,,,,,0.0,None,,102,,,,,1,ws/1.wav,ws/34.wav,0.0,2.0,0.0,2.0
,,,,,,,2.0,2016_Mar_29_1724,Stat_Cat_Oct,59.930100905,None,,,,,,,,0.0,['2'],[0.2514040470123291],102,,,,,1,ws/22.wav,ws/4.wav,10.0,3.0,0.0,3.0
,,,,,,,1.0,2016_Mar_29_1724,Stat_Cat_Oct,59.930100905,['2'],[2.870971918106079],,,,,,,0.0,None,,102,,,,,1,ws/1.wav,ws/10.wav,5.0,4.0,0.0,4.0
,,,,,,,1.0,2016_Mar_29_1724,Stat_Cat_Oct,59.930100905,None,,,,,,,,0.0,['2'],[0.0836188793182373],102,,,,,1,ws/9.wav,ws/18.wav,3.0,5.0,0.0,5.0
,,,,,,,2.0,2016_Mar_29_1724,Stat_Cat_Oct,59.930100905,None,,,,,,,,0.0,['1'],[0.2346479892730713],102,,,,,1,ws/19.wav,ws/1.wav,6.0,6.0,0.0,6.0
,,,,,,,2.0,2016_Mar_29_1724,Stat_Cat_Oct,59.930100905,None,,,,,,,,0.0,['2'],[0.46827006340026855],102,,,,,1,ws/21.wav,ws/3.wav,8.0,7.0,0.0,7.0
,,,,,,,2.0,2016_Mar_29_1724,Stat_Cat_Oct,59.930100905,None,,,,,,,,0.0,['2'],[0.23476886749267578],102,,,,,1,ws/27.wav,ws/9.wav,11.0,8.0,0.0,8.0
,,,,,,,1.0,2016_Mar_29_1724,Stat_Cat_Oct,59.930100905,None,,,,,,,,0.0,['1'],[1.6363558769226074],102,,,,,1,ws/3.wav,ws/29.wav,1.0,9.0,0.0,9.0
,,,,,,,1.0,2016_Mar_29_1724,Stat_Cat_Oct,59.930100905,None,,,,,,,,0.0,['2'],[0.6686990261077881],102,,,,,1,ws/4.wav,ws/13.wav,2.0,10.0,0.0,10.0
,,,,,,,2.0,2016_Mar_29_1724,Stat_Cat_Oct,59.930100905,None,,,,,,,,0.0,['2'],[2.0201199054718018],102,,,,,1,ws/12.wav,ws/3.wav,7.0,11.0,0.0,11.0
,,,,,,,,2016_Mar_29_1724,Stat_Cat_Oct,59.930100905,,,,,space,23.8272471428,,,,,,102,,,,,1,,,,,,
,,,23.0,0.0,0.0,0.0,2.0,2016_Mar_29_1724,Stat_Cat_Oct,59.930100905,,,,,,,,,0.0,['2'],[1.5863361358642578],102,,,,,1,cat/16-4-9.wav,cat/11-4-9.wav,,,,
,,,11.0,1.0,0.0,1.0,1.0,2016_Mar_29_1724,Stat_Cat_Oct,59.930100905,,,,,,,,,0.0,['1'],[0.5018229484558105],102,,,,,1,cat/3-15-9.wav,cat/3-22-9.wav,,,,
,,,22.0,2.0,0.0,2.0,2.0,2016_Mar_29_1724,Stat_Cat_Oct,59.930100905,,,,,,,,,0.0,['1'],[0.36837005615234375],102,,,,,1,cat/1-9-15.wav,cat/1-15-9.wav,,,,
,,,18.0,3.0,0.0,3.0,2.0,2016_Mar_29_1724,Stat_Cat_Oct,59.930100905,,,,,,,,,0.0,['1'],[1.4530320167541504],102,,,,,1,cat/9-4-11.wav,cat/9-11-4.wav,,,,
,,,13.0,4.0,0.0,4.0,1.0,2016_Mar_29_1724,Stat_Cat_Oct,59.930100905,,,,,,,,,0.0,['2'],[0.13472509384155273],102,,,,,1,cat/4-16-1.wav,cat/4-1-16.wav,,,,
,,,19.0,5.0,0.0,5.0,2.0,2016_Mar_29_1724,Stat_Cat_Oct,59.930100905,,,,,,,,,0.0,['1'],[0.3515439033508301],102,,,,,1,cat/1-17-9.wav,cat/1-15-9.wav,,,,
,,,25.0,6.0,0.0,6.0,2.0,2016_Mar_29_1724,Stat_Cat_Oct,59.930100905,,,,,,,,,0.0,['2'],[0.9189050197601318],102,,,,,1,cat/3-4-20.wav,cat/3-4-18.wav,,,,
,,,10.0,7.0,0.0,7.0,1.0,2016_Mar_29_1724,Stat_Cat_Oct,59.930100905,,,,,,,,,0.0,['1'],[0.36722397804260254],102,,,,,1,cat/3-13-9.wav,cat/3-9-13.wav,,,,
,,,6.0,8.0,0.0,8.0,1.0,2016_Mar_29_1724,Stat_Cat_Oct,59.930100905,,,,,,,,,0.0,['1'],[0.7520961761474609],102,,,,,1,cat/1-14-9.wav,cat/1-10-9.wav,,,,
,,,8.0,9.0,0.0,9.0,1.0,2016_Mar_29_1724,Stat_Cat_Oct,59.930100905,,,,,,,,,0.0,['1'],[0.01793813705444336],102,,,,,1,cat/10-4-9.wav,cat/13-4-9.wav,,,,
,,,7.0,10.0,0.0,10.0,1.0,2016_Mar_29_1724,Stat_Cat_Oct,59.930100905,,,,,,,,,0.0,['2'],[0.16811800003051758],102,,,,,1,cat/1-4-18.wav,cat/1-4-12.wav,,,,
,,,3.0,11.0,0.0,11.0,2.0,2016_Mar_29_1724,Stat_Cat_Oct,59.930100905,,,,,,,,,0.0,['2'],[0.251615047454834],102,,,,,1,cat/439.wav,cat/493.wav,,,,
,,,24.0,12.0,0.0,12.0,2.0,2016_Mar_29_1724,Stat_Cat_Oct,59.930100905,,,,,,,,,0.0,['1'],[0.08454489707946777],102,,,,,1,cat/25-4-9.wav,cat/12-4-9.wav,,,,
,,,16.0,13.0,0.0,13.0,1.0,2016_Mar_29_1724,Stat_Cat_Oct,59.930100905,,,,,,,,,0.0,['2'],[0.2515740394592285],102,,,,,1,cat/9-12-4.wav,cat/9-4-12.wav,,,,
,,,15.0,14.0,0.0,14.0,1.0,2016_Mar_29_1724,Stat_Cat_Oct,59.930100905,,,,,,,,,0.0,['1'],[1.519592046737671],102,,,,,1,cat/9-10-4.wav,cat/9-4-10.wav,,,,
,,,4.0,15.0,0.0,15.0,1.0,2016_Mar_29_1724,Stat_Cat_Oct,59.930100905,,,,,,,,,0.0,['1'],[0.30150485038757324],102,,,,,1,cat/914.wav,cat/941.wav,,,,
,,,0.0,16.0,0.0,16.0,1.0,2016_Mar_29_1724,Stat_Cat_Oct,59.930100905,,,,,,,,,0.0,['2'],[1.185779094696045],102,,,,,1,cat/149.wav,cat/194.wav,,,,
,,,20.0,17.0,0.0,17.0,2.0,2016_Mar_29_1724,Stat_Cat_Oct,59.930100905,,,,,,,,,0.0,['2'],[1.0857279300689697],102,,,,,1,cat/1-23-9.wav,cat/1-14-9.wav,,,,
,,,9.0,18.0,0.0,18.0,1.0,2016_Mar_29_1724,Stat_Cat_Oct,59.930100905,,,,,,,,,0.0,['1'],[1.0524041652679443],102,,,,,1,cat/11-4-9.wav,cat/21-4-9.wav,,,,
,,,5.0,19.0,0.0,19.0,1.0,2016_Mar_29_1724,Stat_Cat_Oct,59.930100905,,,,,,,,,0.0,['1'],[2.9543778896331787],102,,,,,1,cat/934.wav,cat/943.wav,,,,
,,,26.0,20.0,0.0,20.0,2.0,2016_Mar_29_1724,Stat_Cat_Oct,59.930100905,,,,,,,,,0.0,['1'],[1.1690800189971924],102,,,,,1,cat/3-9-14.wav,cat/3-14-9.wav,,,,
,,,21.0,21.0,0.0,21.0,2.0,2016_Mar_29_1724,Stat_Cat_Oct,59.930100905,,,,,,,,,0.0,['1'],[0.4350440502166748],102,,,,,1,cat/1-4-13.wav,cat/1-4-16.wav,,,,
,,,1.0,22.0,0.0,22.0,2.0,2016_Mar_29_1724,Stat_Cat_Oct,59.930100905,,,,,,,,,0.0,None,,102,,,,,1,cat/394.wav,cat/349.wav,,,,
,,,17.0,23.0,0.0,23.0,2.0,2016_Mar_29_1724,Stat_Cat_Oct,59.930100905,,,,,,,,,0.0,['2'],[0.9522337913513184],102,,,,,1,cat/4-3-17.wav,cat/4-17-3.wav,,,,
,,,12.0,24.0,0.0,24.0,1.0,2016_Mar_29_1724,Stat_Cat_Oct,59.930100905,,,,,,,,,0.0,['1'],[0.6853880882263184],102,,,,,1,cat/3-4-17.wav,cat/3-4-26.wav,,,,
,,,14.0,25.0,0.0,25.0,1.0,2016_Mar_29_1724,Stat_Cat_Oct,59.930100905,,,,,,,,,0.0,['2'],[1.1525158882141113],102,,,,,1,cat/4-18-1.wav,cat/4-1-18.wav,,,,
,,,2.0,26.0,0.0,26.0,2.0,2016_Mar_29_1724,Stat_Cat_Oct,59.930100905,,,,,,,,,0.0,['1'],[1.8354790210723877],102,,,,,1,cat/419.wav,cat/491.wav,,,,
,,,,,,,1.0,2016_Mar_29_1818,Stat_Cat_Oct,59.9369521539,None,,,,,,,,1.0,1.0,1.9031538963299999,103,0.0,0.0,0.0,0.0,1,prac1.wav,prac2.wav,,,,
,,,,,,,,2016_Mar_29_1818,Stat_Cat_Oct,59.9369521539,,,space,8.46046304703,,,,,,,,103,,,,,1,,,,,,
,,,,,,,2.0,2016_Mar_29_1818,Stat_Cat_Oct,59.9369521539,None,,,,,,,,1.0,2.0,0.718682050705,103,,,,,1,ws/15.wav,ws/6.wav,8.0,0.0,0.0,0.0
,,,,,,,2.0,2016_Mar_29_1818,Stat_Cat_Oct,59.9369521539,None,,,,,,,,1.0,2.0,1.1024720668799999,103,,,,,1,ws/30.wav,ws/2.wav,12.0,1.0,0.0,1.0
,,,,,,,2.0,2016_Mar_29_1818,Stat_Cat_Oct,59.9369521539,None,,,,,,,,0.0,1.0,1.33601403236,103,,,,,1,ws/23.wav,ws/5.wav,10.0,2.0,0.0,2.0
,,,,,,,2.0,2016_Mar_29_1818,Stat_Cat_Oct,59.9369521539,None,,,,,,,,0.0,1.0,1.5027720928200001,103,,,,,1,ws/35.wav,ws/8.wav,14.0,3.0,0.0,3.0
,,,,,,,2.0,2016_Mar_29_1818,Stat_Cat_Oct,59.9369521539,None,,,,,,,,0.0,1.0,0.7021930217739999,103,,,,,1,ws/28.wav,ws/7.wav,13.0,4.0,0.0,4.0
,,,,,,,2.0,2016_Mar_29_1818,Stat_Cat_Oct,59.9369521539,['1'],[2.5872459411621094],,,,,,,0.0,1.0,0.5685279369349999,103,,,,,1,ws/25.wav,ws/7.wav,11.0,5.0,0.0,5.0
,,,,,,,1.0,2016_Mar_29_1818,Stat_Cat_Oct,59.9369521539,['2'],[2.904348850250244],,,,,,,0.0,2.0,0.768723964691,103,,,,,1,ws/2.wav,ws/20.wav,1.0,6.0,0.0,6.0
,,,,,,,1.0,2016_Mar_29_1818,Stat_Cat_Oct,59.9369521539,None,,,,,,,,0.0,2.0,0.501852035522,103,,,,,1,ws/5.wav,ws/14.wav,2.0,7.0,0.0,7.0
,,,,,,,1.0,2016_Mar_29_1818,Stat_Cat_Oct,59.9369521539,None,,,,,,,,1.0,1.0,0.368349075317,103,,,,,1,ws/6.wav,ws/24.wav,5.0,8.0,0.0,8.0
,,,,,,,1.0,2016_Mar_29_1818,Stat_Cat_Oct,59.9369521539,None,,,,,,,,1.0,1.0,0.451760053635,103,,,,,1,ws/5.wav,ws/36.wav,3.0,9.0,0.0,9.0
,,,,,,,2.0,2016_Mar_29_1818,Stat_Cat_Oct,59.9369521539,None,,,,,,,,1.0,2.0,3.7217891216300005,103,,,,,1,ws/17.wav,ws/8.wav,9.0,10.0,0.0,10.0
,,,,,,,1.0,2016_Mar_29_1818,Stat_Cat_Oct,59.9369521539,None,,,,,,,,1.0,1.0,0.134655952454,103,,,,,1,ws/6.wav,ws/32.wav,4.0,11.0,0.0,11.0
,,,,,,,1.0,2016_Mar_29_1818,Stat_Cat_Oct,59.9369521539,None,,,,,,,,0.0,2.0,0.45170712471,103,,,,,1,ws/8.wav,ws/26.wav,7.0,12.0,0.0,12.0
,,,,,,,1.0,2016_Mar_29_1818,Stat_Cat_Oct,59.9369521539,None,,,,,,,,0.0,2.0,1.2858669757799999,103,,,,,1,ws/7.wav,ws/16.wav,6.0,13.0,0.0,13.0
,,,,,,,1.0,2016_Mar_29_1818,Stat_Cat_Oct,59.9369521539,None,,,,,,,,1.0,1.0,0.433921098709,103,,,,,1,ws/2.wav,ws/11.wav,0.0,14.0,0.0,14.0
,,,,,,,,2016_Mar_29_1818,Stat_Cat_Oct,59.9369521539,,,,,space,24.4578709602,,,,,,103,,,,,1,,,,,,
,,,32.0,0.0,0.0,0.0,2.0,2016_Mar_29_1818,Stat_Cat_Oct,59.9369521539,,,,,,,,,0.0,1.0,2.85433602333,103,,,,,1,cat/25-5-8.wav,cat/12-5-8.wav,,,,
,,,9.0,1.0,0.0,1.0,2.0,2016_Mar_29_1818,Stat_Cat_Oct,59.9369521539,,,,,,,,,1.0,2.0,1.55295491219,103,,,,,1,cat/762.wav,cat/726.wav,,,,
,,,25.0,2.0,0.0,2.0,2.0,2016_Mar_29_1818,Stat_Cat_Oct,59.9369521539,,,,,,,,,1.0,2.0,2.5539560318,103,,,,,1,cat/16-5-8.wav,cat/11-5-8.wav,,,,
,,,16.0,3.0,0.0,3.0,1.0,2016_Mar_29_1818,Stat_Cat_Oct,59.9369521539,,,,,,,,,1.0,1.0,0.5518400669100001,103,,,,,1,cat/2-15-7.wav,cat/2-22-7.wav,,,,
,,,18.0,4.0,0.0,4.0,2.0,2016_Mar_29_1818,Stat_Cat_Oct,59.9369521539,,,,,,,,,1.0,2.0,2.52059102058,103,,,,,1,cat/2-6-26.wav,cat/2-6-17.wav,,,,
,,,15.0,5.0,0.0,5.0,1.0,2016_Mar_29_1818,Stat_Cat_Oct,59.9369521539,,,,,,,,,0.0,2.0,0.718760967255,103,,,,,1,cat/2-14-8.wav,cat/2-10-8.wav,,,,
,,,19.0,6.0,0.0,6.0,1.0,2016_Mar_29_1818,Stat_Cat_Oct,59.9369521539,,,,,,,,,1.0,1.0,0.702085971832,103,,,,,1,cat/5-16-2.wav,cat/5-2-16.wav,,,,
,,,11.0,7.0,0.0,7.0,1.0,2016_Mar_29_1818,Stat_Cat_Oct,59.9369521539,,,,,,,,,0.0,2.0,1.1358869075799998,103,,,,,1,cat/826.wav,cat/862.wav,,,,
,,,4.0,8.0,0.0,8.0,1.0,2016_Mar_29_1818,Stat_Cat_Oct,59.9369521539,,,,,,,,,1.0,1.0,1.3027341365799998,103,,,,,1,cat/572.wav,cat/527.wav,,,,
,,,22.0,9.0,0.0,9.0,2.0,2016_Mar_29_1818,Stat_Cat_Oct,59.9369521539,,,,,,,,,1.0,2.0,0.802015066147,103,,,,,1,cat/7-5-10.wav,cat/7-10-5.wav,,,,
,,,23.0,10.0,0.0,10.0,2.0,2016_Mar_29_1818,Stat_Cat_Oct,59.9369521539,,,,,,,,,0.0,1.0,0.668477058411,103,,,,,1,cat/8-6-11.wav,cat/8-11-6.wav,,,,
,,,8.0,11.0,0.0,11.0,1.0,2016_Mar_29_1818,Stat_Cat_Oct,59.9369521539,,,,,,,,,0.0,2.0,2.38738298416,103,,,,,1,cat/725.wav,cat/752.wav,,,,
,,,7.0,12.0,0.0,12.0,1.0,2016_Mar_29_1818,Stat_Cat_Oct,59.9369521539,,,,,,,,,1.0,1.0,1.08570098877,103,,,,,1,cat/682.wav,cat/628.wav,,,,
,,,20.0,13.0,0.0,13.0,1.0,2016_Mar_29_1818,Stat_Cat_Oct,59.9369521539,,,,,,,,,1.0,1.0,1.9033777713799997,103,,,,,1,cat/6-17-2.wav,cat/6-2-17.wav,,,,
,,,30.0,14.0,0.0,14.0,2.0,2016_Mar_29_1818,Stat_Cat_Oct,59.9369521539,,,,,,,,,1.0,2.0,0.735404968262,103,,,,,1,cat/2-7-14.wav,cat/2-14-7.wav,,,,
,,,13.0,15.0,0.0,15.0,1.0,2016_Mar_29_1818,Stat_Cat_Oct,59.9369521539,,,,,,,,,0.0,2.0,0.485019207001,103,,,,,1,cat/11-5-7.wav,cat/21-5-7.wav,,,,
,,,2.0,16.0,0.0,16.0,2.0,2016_Mar_29_1818,Stat_Cat_Oct,59.9369521539,,,,,,,,,1.0,2.0,0.45068693161000006,103,,,,,1,cat/276.wav,cat/267.wav,,,,
,,,17.0,17.0,0.0,17.0,1.0,2016_Mar_29_1818,Stat_Cat_Oct,59.9369521539,,,,,,,,,1.0,1.0,0.585253953934,103,,,,,1,cat/2-5-18.wav,cat/2-5-12.wav,,,,
,,,6.0,18.0,0.0,18.0,2.0,2016_Mar_29_1818,Stat_Cat_Oct,59.9369521539,,,,,,,,,0.0,1.0,2.25259804726,103,,,,,1,cat/627.wav,cat/672.wav,,,,
,,,21.0,19.0,0.0,19.0,1.0,2016_Mar_29_1818,Stat_Cat_Oct,59.9369521539,,,,,,,,,1.0,1.0,1.8533167839099998,103,,,,,1,cat/6-18-2.wav,cat/6-2-18.wav,,,,
,,,31.0,20.0,0.0,20.0,2.0,2016_Mar_29_1818,Stat_Cat_Oct,59.9369521539,,,,,,,,,0.0,1.0,0.618600845337,103,,,,,1,cat/2-8-15.wav,cat/2-15-8.wav,,,,
,,,10.0,21.0,0.0,21.0,2.0,2016_Mar_29_1818,Stat_Cat_Oct,59.9369521539,,,,,,,,,1.0,2.0,4.089036941530001,103,,,,,1,cat/852.wav,cat/825.wav,,,,
,,,27.0,22.0,0.0,22.0,2.0,2016_Mar_29_1818,Stat_Cat_Oct,59.9369521539,,,,,,,,,0.0,1.0,1.1847541332200002,103,,,,,1,cat/2-23-8.wav,cat/2-14-8.wav,,,,
,,,3.0,23.0,0.0,23.0,1.0,2016_Mar_29_1818,Stat_Cat_Oct,59.9369521539,,,,,,,,,0.0,2.0,2.42055821419,103,,,,,1,cat/268.wav,cat/286.wav,,,,
,,,12.0,24.0,0.0,24.0,1.0,2016_Mar_29_1818,Stat_Cat_Oct,59.9369521539,,,,,,,,,0.0,2.0,0.30156302452100003,103,,,,,1,cat/10-6-7.wav,cat/13-6-7.wav,,,,
,,,28.0,25.0,0.0,25.0,2.0,2016_Mar_29_1818,Stat_Cat_Oct,59.9369521539,,,,,,,,,0.0,1.0,2.4695119857799996,103,,,,,1,cat/2-5-13.wav,cat/2-5-16.wav,,,,
,,,14.0,26.0,0.0,26.0,1.0,2016_Mar_29_1818,Stat_Cat_Oct,59.9369521539,,,,,,,,,1.0,1.0,0.635179042816,103,,,,,1,cat/2-13-8.wav,cat/2-8-13.wav,,,,
,,,26.0,27.0,0.0,27.0,2.0,2016_Mar_29_1818,Stat_Cat_Oct,59.9369521539,,,,,,,,,1.0,2.0,0.33390402793900004,103,,,,,1,cat/2-17-7.wav,cat/2-15-7.wav,,,,
,,,24.0,28.0,0.0,28.0,1.0,2016_Mar_29_1818,Stat_Cat_Oct,59.9369521539,,,,,,,,,1.0,1.0,1.7365090847,103,,,,,1,cat/8-12-5.wav,cat/8-5-12.wav,,,,
,,,1.0,29.0,0.0,29.0,2.0,2016_Mar_29_1818,Stat_Cat_Oct,59.9369521539,,,,,,,,,1.0,2.0,2.08682203293,103,,,,,1,cat/285.wav,cat/258.wav,,,,
,,,29.0,30.0,0.0,30.0,2.0,2016_Mar_29_1818,Stat_Cat_Oct,59.9369521539,,,,,,,,,1.0,2.0,0.43502497673,103,,,,,1,cat/2-6-20.wav,cat/2-6-18.wav,,,,
,,,5.0,31.0,0.0,31.0,2.0,2016_Mar_29_1818,Stat_Cat_Oct,59.9369521539,,,,,,,,,0.0,1.0,1.01903796196,103,,,,,1,cat/528.wav,cat/582.wav,,,,
,,,0.0,32.0,0.0,32.0,1.0,2016_Mar_29_1818,Stat_Cat_Oct,59.9369521539,,,,,,,,,1.0,1.0,0.535119056702,103,,,,,1,cat/257.wav,cat/275.wav,,,,
,,,,,,,,2016_Mar_29_1818,Stat_Cat_Oct,59.9369521539,,,,,,,space,1.45293688774,,,,103,,,,,1,,,,,,
,,,,,,,1.0,2016_Mar_30_1235,Stat_Cat_Oct,59.934125824,None,,,,,,,,0.0,['2'],[0.9190740585327148],104,0.0,0.0,0.0,0.0,1,prac1.wav,prac2.wav,,,,
,,,,,,,,2016_Mar_30_1235,Stat_Cat_Oct,59.934125824,,,space,8.96105790138,,,,,,,,104,,,,,1,,,,,,
,,,,,,,1.0,2016_Mar_30_1235,Stat_Cat_Oct,59.934125824,None,,,,,,,,0.0,['1'],[0.6185200214385986],104,,,,,1,ws/9.wav,ws/18.wav,3.0,0.0,0.0,0.0
,,,,,,,2.0,2016_Mar_30_1235,Stat_Cat_Oct,59.934125824,None,,,,,,,,0.0,['1'],[1.386031150817871],104,,,,,1,ws/22.wav,ws/4.wav,10.0,1.0,0.0,1.0
,,,,,,,1.0,2016_Mar_30_1235,Stat_Cat_Oct,59.934125824,None,,,,,,,,0.0,['1'],[1.3684680461883545],104,,,,,1,ws/4.wav,ws/13.wav,2.0,2.0,0.0,2.0
,,,,,,,1.0,2016_Mar_30_1235,Stat_Cat_Oct,59.934125824,None,,,,,,,,0.0,['1'],[0.9020981788635254],104,,,,,1,ws/1.wav,ws/34.wav,0.0,3.0,0.0,3.0
,,,,,,,2.0,2016_Mar_30_1235,Stat_Cat_Oct,59.934125824,None,,,,,,,,0.0,['2'],[0.31827688217163086],104,,,,,1,ws/21.wav,ws/3.wav,8.0,4.0,0.0,4.0
,,,,,,,2.0,2016_Mar_30_1235,Stat_Cat_Oct,59.934125824,None,,,,,,,,0.0,['1'],[0.8510279655456543],104,,,,,1,ws/31.wav,ws/4.wav,9.0,5.0,0.0,5.0
,,,,,,,2.0,2016_Mar_30_1235,Stat_Cat_Oct,59.934125824,None,,,,,,,,0.0,['2'],[0.28478193283081055],104,,,,,1,ws/27.wav,ws/9.wav,11.0,6.0,0.0,6.0
,,,,,,,1.0,2016_Mar_30_1235,Stat_Cat_Oct,59.934125824,None,,,,,,,,0.0,['1'],[0.25192809104919434],104,,,,,1,ws/3.wav,ws/29.wav,1.0,7.0,0.0,7.0
,,,,,,,1.0,2016_Mar_30_1235,Stat_Cat_Oct,59.934125824,None,,,,,,,,0.0,['1'],[0.5016460418701172],104,,,,,1,ws/1.wav,ws/10.wav,5.0,8.0,0.0,8.0
,,,,,,,2.0,2016_Mar_30_1235,Stat_Cat_Oct,59.934125824,None,,,,,,,,0.0,"['1', '2']","[0.6018698215484619, 1.43611478805542]",104,,,,,1,ws/12.wav,ws/3.wav,7.0,9.0,0.0,9.0
,,,,,,,1.0,2016_Mar_30_1235,Stat_Cat_Oct,59.934125824,None,,,,,,,,0.0,['1'],[0.9690549373626709],104,,,,,1,ws/9.wav,ws/33.wav,4.0,10.0,0.0,10.0
,,,,,,,2.0,2016_Mar_30_1235,Stat_Cat_Oct,59.934125824,None,,,,,,,,0.0,['2'],[1.5029211044311523],104,,,,,1,ws/19.wav,ws/1.wav,6.0,11.0,0.0,11.0
,,,,,,,,2016_Mar_30_1235,Stat_Cat_Oct,59.934125824,,,,,space,20.4735651016,,,,,,104,,,,,1,,,,,,
,,,2.0,0.0,0.0,0.0,2.0,2016_Mar_30_1235,Stat_Cat_Oct,59.934125824,,,,,,,,,0.0,['1'],[0.9355731010437012],104,,,,,1,cat/419.wav,cat/491.wav,,,,
,,,20.0,1.0,0.0,1.0,2.0,2016_Mar_30_1235,Stat_Cat_Oct,59.934125824,,,,,,,,,0.0,['1'],[0.6852030754089355],104,,,,,1,cat/1-23-9.wav,cat/1-14-9.wav,,,,
,,,13.0,2.0,0.0,2.0,1.0,2016_Mar_30_1235,Stat_Cat_Oct,59.934125824,,,,,,,,,0.0,['2'],[1.0023319721221924],104,,,,,1,cat/4-16-1.wav,cat/4-1-16.wav,,,,
,,,5.0,3.0,0.0,3.0,1.0,2016_Mar_30_1235,Stat_Cat_Oct,59.934125824,,,,,,,,,0.0,['1'],[1.7866270542144775],104,,,,,1,cat/934.wav,cat/943.wav,,,,
,,,8.0,4.0,0.0,4.0,1.0,2016_Mar_30_1235,Stat_Cat_Oct,59.934125824,,,,,,,,,0.0,['2'],[2.737699031829834],104,,,,,1,cat/10-4-9.wav,cat/13-4-9.wav,,,,
,,,12.0,5.0,0.0,5.0,1.0,2016_Mar_30_1235,Stat_Cat_Oct,59.934125824,,,,,,,,,0.0,['1'],[0.652008056640625],104,,,,,1,cat/3-4-17.wav,cat/3-4-26.wav,,,,
,,,10.0,6.0,0.0,6.0,1.0,2016_Mar_30_1235,Stat_Cat_Oct,59.934125824,,,,,,,,,0.0,['1'],[2.1368579864501953],104,,,,,1,cat/3-13-9.wav,cat/3-9-13.wav,,,,
,,,11.0,7.0,0.0,7.0,1.0,2016_Mar_30_1235,Stat_Cat_Oct,59.934125824,,,,,,,,,0.0,['2'],[1.2693369388580322],104,,,,,1,cat/3-15-9.wav,cat/3-22-9.wav,,,,
,,,1.0,8.0,0.0,8.0,2.0,2016_Mar_30_1235,Stat_Cat_Oct,59.934125824,,,,,,,,,0.0,['1'],[0.8188598155975342],104,,,,,1,cat/394.wav,cat/349.wav,,,,
,,,21.0,9.0,0.0,9.0,2.0,2016_Mar_30_1235,Stat_Cat_Oct,59.934125824,,,,,,,,,0.0,['1'],[0.5184271335601807],104,,,,,1,cat/1-4-13.wav,cat/1-4-16.wav,,,,
,,,6.0,10.0,0.0,10.0,1.0,2016_Mar_30_1235,Stat_Cat_Oct,59.934125824,,,,,,,,,0.0,['2'],[0.585223913192749],104,,,,,1,cat/1-14-9.wav,cat/1-10-9.wav,,,,
,,,9.0,11.0,0.0,11.0,1.0,2016_Mar_30_1235,Stat_Cat_Oct,59.934125824,,,,,,,,,0.0,['1'],[0.30159997940063477],104,,,,,1,cat/11-4-9.wav,cat/21-4-9.wav,,,,
,,,19.0,12.0,0.0,12.0,2.0,2016_Mar_30_1235,Stat_Cat_Oct,59.934125824,,,,,,,,,0.0,['1'],[0.3684661388397217],104,,,,,1,cat/1-17-9.wav,cat/1-15-9.wav,,,,
,,,16.0,13.0,0.0,13.0,1.0,2016_Mar_30_1235,Stat_Cat_Oct,59.934125824,,,,,,,,,0.0,"['2', '1']","[0.8022069931030273, 2.169152021408081]",104,,,,,1,cat/9-12-4.wav,cat/9-4-12.wav,,,,
,,,0.0,14.0,0.0,14.0,1.0,2016_Mar_30_1235,Stat_Cat_Oct,59.934125824,,,,,,,,,0.0,['1'],[0.7354221343994141],104,,,,,1,cat/149.wav,cat/194.wav,,,,
,,,14.0,15.0,0.0,15.0,1.0,2016_Mar_30_1235,Stat_Cat_Oct,59.934125824,,,,,,,,,0.0,['2'],[0.06795716285705566],104,,,,,1,cat/4-18-1.wav,cat/4-1-18.wav,,,,
,,,4.0,16.0,0.0,16.0,1.0,2016_Mar_30_1235,Stat_Cat_Oct,59.934125824,,,,,,,,,0.0,['1'],[0.23482894897460938],104,,,,,1,cat/914.wav,cat/941.wav,,,,
,,,17.0,17.0,0.0,17.0,2.0,2016_Mar_30_1235,Stat_Cat_Oct,59.934125824,,,,,,,,,0.0,['1'],[1.3860580921173096],104,,,,,1,cat/4-3-17.wav,cat/4-17-3.wav,,,,
,,,26.0,18.0,0.0,18.0,2.0,2016_Mar_30_1235,Stat_Cat_Oct,59.934125824,,,,,,,,,0.0,['2'],[1.6028859615325928],104,,,,,1,cat/3-9-14.wav,cat/3-14-9.wav,,,,
,,,7.0,19.0,0.0,19.0,1.0,2016_Mar_30_1235,Stat_Cat_Oct,59.934125824,,,,,,,,,0.0,['2'],[1.6864299774169922],104,,,,,1,cat/1-4-18.wav,cat/1-4-12.wav,,,,
,,,22.0,20.0,0.0,20.0,2.0,2016_Mar_30_1235,Stat_Cat_Oct,59.934125824,,,,,,,,,0.0,['1'],[0.3514859676361084],104,,,,,1,cat/1-9-15.wav,cat/1-15-9.wav,,,,
,,,23.0,21.0,0.0,21.0,2.0,2016_Mar_30_1235,Stat_Cat_Oct,59.934125824,,,,,,,,,0.0,['2'],[1.2358548641204834],104,,,,,1,cat/16-4-9.wav,cat/11-4-9.wav,,,,
,,,24.0,22.0,0.0,22.0,2.0,2016_Mar_30_1235,Stat_Cat_Oct,59.934125824,,,,,,,,,0.0,['2'],[0.4183650016784668],104,,,,,1,cat/25-4-9.wav,cat/12-4-9.wav,,,,
,,,18.0,23.0,0.0,23.0,2.0,2016_Mar_30_1235,Stat_Cat_Oct,59.934125824,,,,,,,,,0.0,['1'],[0.4015519618988037],104,,,,,1,cat/9-4-11.wav,cat/9-11-4.wav,,,,
,,,15.0,24.0,0.0,24.0,1.0,2016_Mar_30_1235,Stat_Cat_Oct,59.934125824,,,,,,,,,0.0,['1'],[0.6018688678741455],104,,,,,1,cat/9-10-4.wav,cat/9-4-10.wav,,,,
,,,25.0,25.0,0.0,25.0,2.0,2016_Mar_30_1235,Stat_Cat_Oct,59.934125824,,,,,,,,,0.0,"['2', '1']","[0.68538498878479, 1.4027860164642334]",104,,,,,1,cat/3-4-20.wav,cat/3-4-18.wav,,,,
,,,3.0,26.0,0.0,26.0,2.0,2016_Mar_30_1235,Stat_Cat_Oct,59.934125824,,,,,,,,,0.0,['1'],[0.6685080528259277],104,,,,,1,cat/439.wav,cat/493.wav,,,,
,,,,,,,,2016_Mar_30_1235,Stat_Cat_Oct,59.934125824,,,,,,,space,4.17248106003,,,,104,,,,,1,,,,,,
,,,,,,,1.0,2016_Mar_30_1846,Stat_Cat_Oct,59.936523905,None,,,,,,,,0.0,2.0,7.592772960660001,105,0.0,0.0,0.0,0.0,1,prac1.wav,prac2.wav,,,,
,,,,,,,,2016_Mar_30_1846,Stat_Cat_Oct,59.936523905,,,space,20.1063549519,,,,,,,,105,,,,,1,,,,,,
,,,,,,,1.0,2016_Mar_30_1846,Stat_Cat_Oct,59.936523905,None,,,,,,,,1.0,1.0,7.792977809910001,105,,,,,1,ws/2.wav,ws/11.wav,0.0,0.0,0.0,0.0
,,,,,,,2.0,2016_Mar_30_1846,Stat_Cat_Oct,59.936523905,['1'],[2.687589168548584],,,,,,,0.0,1.0,1.9032568931599998,105,,,,,1,ws/23.wav,ws/5.wav,10.0,1.0,0.0,1.0
,,,,,,,1.0,2016_Mar_30_1846,Stat_Cat_Oct,59.936523905,None,,,,,,,,0.0,2.0,3.5217101573900003,105,,,,,1,ws/6.wav,ws/32.wav,4.0,2.0,0.0,2.0
,,,,,,,2.0,2016_Mar_30_1846,Stat_Cat_Oct,59.936523905,None,,,,,,,,1.0,2.0,2.67078495026,105,,,,,1,ws/30.wav,ws/2.wav,12.0,3.0,0.0,3.0
,,,,,,,2.0,2016_Mar_30_1846,Stat_Cat_Oct,59.936523905,None,,,,,,,,1.0,2.0,0.651922941208,105,,,,,1,ws/35.wav,ws/8.wav,14.0,4.0,0.0,4.0
,,,,,,,1.0,2016_Mar_30_1846,Stat_Cat_Oct,59.936523905,None,,,,,,,,0.0,2.0,2.6540908813499997,105,,,,,1,ws/5.wav,ws/36.wav,3.0,5.0,0.0,5.0
,,,,,,,2.0,2016_Mar_30_1846,Stat_Cat_Oct,59.936523905,None,,,,,,,,1.0,2.0,0.351603984833,105,,,,,1,ws/17.wav,ws/8.wav,9.0,6.0,0.0,6.0
,,,,,,,2.0,2016_Mar_30_1846,Stat_Cat_Oct,59.936523905,None,,,,,,,,0.0,1.0,8.22666788101,105,,,,,1,ws/25.wav,ws/7.wav,11.0,7.0,0.0,7.0
,,,,,,,1.0,2016_Mar_30_1846,Stat_Cat_Oct,59.936523905,['2'],[2.637507200241089],,,,,,,0.0,2.0,0.418258905411,105,,,,,1,ws/7.wav,ws/16.wav,6.0,8.0,0.0,8.0
,,,,,,,1.0,2016_Mar_30_1846,Stat_Cat_Oct,59.936523905,None,,,,,,,,1.0,1.0,0.318198204041,105,,,,,1,ws/8.wav,ws/26.wav,7.0,9.0,0.0,9.0
,,,,,,,1.0,2016_Mar_30_1846,Stat_Cat_Oct,59.936523905,None,,,,,,,,1.0,1.0,4.67192006111,105,,,,,1,ws/2.wav,ws/20.wav,1.0,10.0,0.0,10.0
,,,,,,,2.0,2016_Mar_30_1846,Stat_Cat_Oct,59.936523905,None,,,,,,,,1.0,2.0,4.63958597183,105,,,,,1,ws/28.wav,ws/7.wav,13.0,11.0,0.0,11.0
,,,,,,,2.0,2016_Mar_30_1846,Stat_Cat_Oct,59.936523905,None,,,,,,,,0.0,1.0,4.20578885078,105,,,,,1,ws/15.wav,ws/6.wav,8.0,12.0,0.0,12.0
,,,,,,,1.0,2016_Mar_30_1846,Stat_Cat_Oct,59.936523905,None,,,,,,,,1.0,1.0,2.55393481255,105,,,,,1,ws/5.wav,ws/14.wav,2.0,13.0,0.0,13.0
,,,,,,,1.0,2016_Mar_30_1846,Stat_Cat_Oct,59.936523905,None,,,,,,,,0.0,2.0,1.352684021,105,,,,,1,ws/6.wav,ws/24.wav,5.0,14.0,0.0,14.0
,,,,,,,,2016_Mar_30_1846,Stat_Cat_Oct,59.936523905,,,,,space,22.8736629486,,,,,,105,,,,,1,,,,,,
,,,30.0,0.0,0.0,0.0,2.0,2016_Mar_30_1846,Stat_Cat_Oct,59.936523905,,,,,,,,,0.0,1.0,1.06905508041,105,,,,,1,cat/2-7-14.wav,cat/2-14-7.wav,,,,
,,,2.0,1.0,0.0,1.0,2.0,2016_Mar_30_1846,Stat_Cat_Oct,59.936523905,,,,,,,,,1.0,2.0,4.27244496346,105,,,,,1,cat/276.wav,cat/267.wav,,,,
,,,22.0,2.0,0.0,2.0,2.0,2016_Mar_30_1846,Stat_Cat_Oct,59.936523905,,,,,,,,,0.0,1.0,2.01999306679,105,,,,,1,cat/7-5-10.wav,cat/7-10-5.wav,,,,
,,,4.0,3.0,0.0,3.0,1.0,2016_Mar_30_1846,Stat_Cat_Oct,59.936523905,,,,,,,,,1.0,1.0,1.01908516884,105,,,,,1,cat/572.wav,cat/527.wav,,,,
,,,19.0,4.0,0.0,4.0,1.0,2016_Mar_30_1846,Stat_Cat_Oct,59.936523905,,,,,,,,,1.0,1.0,2.4205071926099997,105,,,,,1,cat/5-16-2.wav,cat/5-2-16.wav,,,,
,,,0.0,5.0,0.0,5.0,1.0,2016_Mar_30_1846,Stat_Cat_Oct,59.936523905,,,,,,,,,1.0,1.0,2.75420284271,105,,,,,1,cat/257.wav,cat/275.wav,,,,
,,,27.0,6.0,0.0,6.0,2.0,2016_Mar_30_1846,Stat_Cat_Oct,59.936523905,,,,,,,,,0.0,1.0,5.17334294319,105,,,,,1,cat/2-23-8.wav,cat/2-14-8.wav,,,,
,,,21.0,7.0,0.0,7.0,1.0,2016_Mar_30_1846,Stat_Cat_Oct,59.936523905,,,,,,,,,1.0,1.0,1.11908078194,105,,,,,1,cat/6-18-2.wav,cat/6-2-18.wav,,,,
,,,28.0,8.0,0.0,8.0,2.0,2016_Mar_30_1846,Stat_Cat_Oct,59.936523905,,,,,,,,,1.0,2.0,15.9016599655,105,,,,,1,cat/2-5-13.wav,cat/2-5-16.wav,,,,
,,,1.0,9.0,0.0,9.0,2.0,2016_Mar_30_1846,Stat_Cat_Oct,59.936523905,,,,,,,,,0.0,1.0,4.22234606743,105,,,,,1,cat/285.wav,cat/258.wav,,,,
,,,18.0,10.0,0.0,10.0,2.0,2016_Mar_30_1846,Stat_Cat_Oct,59.936523905,,,,,,,,,0.0,1.0,0.702060937881,105,,,,,1,cat/2-6-26.wav,cat/2-6-17.wav,,,,
,,,32.0,11.0,0.0,11.0,2.0,2016_Mar_30_1846,Stat_Cat_Oct,59.936523905,,,,,,,,,0.0,1.0,1.55308818817,105,,,,,1,cat/25-5-8.wav,cat/12-5-8.wav,,,,
,,,13.0,12.0,0.0,12.0,1.0,2016_Mar_30_1846,Stat_Cat_Oct,59.936523905,,,,,,,,,1.0,1.0,3.3548707962,105,,,,,1,cat/11-5-7.wav,cat/21-5-7.wav,,,,
,,,20.0,13.0,0.0,13.0,1.0,2016_Mar_30_1846,Stat_Cat_Oct,59.936523905,,,,,,,,,1.0,1.0,1.2358999252299998,105,,,,,1,cat/6-17-2.wav,cat/6-2-17.wav,,,,
,,,12.0,14.0,0.0,14.0,1.0,2016_Mar_30_1846,Stat_Cat_Oct,59.936523905,,,,,,,,,1.0,1.0,1.81985497475,105,,,,,1,cat/10-6-7.wav,cat/13-6-7.wav,,,,
,,,29.0,15.0,0.0,15.0,2.0,2016_Mar_30_1846,Stat_Cat_Oct,59.936523905,,,,,,,,,1.0,2.0,9.29471302032,105,,,,,1,cat/2-6-20.wav,cat/2-6-18.wav,,,,
,,,15.0,16.0,0.0,16.0,1.0,2016_Mar_30_1846,Stat_Cat_Oct,59.936523905,,,,,,,,,1.0,1.0,0.41830205917400004,105,,,,,1,cat/2-14-8.wav,cat/2-10-8.wav,,,,
,,,8.0,17.0,0.0,17.0,1.0,2016_Mar_30_1846,Stat_Cat_Oct,59.936523905,,,,,,,,,1.0,1.0,0.501796007156,105,,,,,1,cat/725.wav,cat/752.wav,,,,
,,,24.0,18.0,0.0,18.0,1.0,2016_Mar_30_1846,Stat_Cat_Oct,59.936523905,,,,,,,,,1.0,1.0,4.3226108551,105,,,,,1,cat/8-12-5.wav,cat/8-5-12.wav,,,,
,,,16.0,19.0,0.0,19.0,1.0,2016_Mar_30_1846,Stat_Cat_Oct,59.936523905,,,,,,,,,1.0,1.0,0.46840190887500005,105,,,,,1,cat/2-15-7.wav,cat/2-22-7.wav,,,,
,,,7.0,20.0,0.0,20.0,1.0,2016_Mar_30_1846,Stat_Cat_Oct,59.936523905,,,,,,,,,0.0,2.0,4.82309603691,105,,,,,1,cat/682.wav,cat/628.wav,,,,
,,,3.0,21.0,0.0,21.0,1.0,2016_Mar_30_1846,Stat_Cat_Oct,59.936523905,,,,,,,,,1.0,1.0,2.78755092621,105,,,,,1,cat/268.wav,cat/286.wav,,,,
,,,9.0,22.0,0.0,22.0,2.0,2016_Mar_30_1846,Stat_Cat_Oct,59.936523905,,,,,,,,,0.0,1.0,0.852134943008,105,,,,,1,cat/762.wav,cat/726.wav,,,,
,,,23.0,23.0,0.0,23.0,2.0,2016_Mar_30_1846,Stat_Cat_Oct,59.936523905,,,,,,,,,1.0,2.0,4.78977894783,105,,,,,1,cat/8-6-11.wav,cat/8-11-6.wav,,,,
,,,14.0,24.0,0.0,24.0,1.0,2016_Mar_30_1846,Stat_Cat_Oct,59.936523905,,,,,,,,,1.0,1.0,0.318342924118,105,,,,,1,cat/2-13-8.wav,cat/2-8-13.wav,,,,
,,,5.0,25.0,0.0,25.0,2.0,2016_Mar_30_1846,Stat_Cat_Oct,59.936523905,,,,,,,,,0.0,1.0,0.318188905716,105,,,,,1,cat/528.wav,cat/582.wav,,,,
,,,17.0,26.0,0.0,26.0,1.0,2016_Mar_30_1846,Stat_Cat_Oct,59.936523905,,,,,,,,,1.0,1.0,0.8520860672,105,,,,,1,cat/2-5-18.wav,cat/2-5-12.wav,,,,
,,,11.0,27.0,0.0,27.0,1.0,2016_Mar_30_1846,Stat_Cat_Oct,59.936523905,,,,,,,,,0.0,2.0,10.3623740673,105,,,,,1,cat/826.wav,cat/862.wav,,,,
,,,31.0,28.0,0.0,28.0,2.0,2016_Mar_30_1846,Stat_Cat_Oct,59.936523905,,,,,,,,,1.0,2.0,4.85549807549,105,,,,,1,cat/2-8-15.wav,cat/2-15-8.wav,,,,
,,,6.0,29.0,0.0,29.0,2.0,2016_Mar_30_1846,Stat_Cat_Oct,59.936523905,,,,,,,,,0.0,1.0,0.7687580585480001,105,,,,,1,cat/627.wav,cat/672.wav,,,,
,,,10.0,30.0,0.0,30.0,2.0,2016_Mar_30_1846,Stat_Cat_Oct,59.936523905,,,,,,,,,0.0,1.0,0.0847561359406,105,,,,,1,cat/852.wav,cat/825.wav,,,,
,,,25.0,31.0,0.0,31.0,2.0,2016_Mar_30_1846,Stat_Cat_Oct,59.936523905,,,,,,,,,0.0,1.0,1.3694229126,105,,,,,1,cat/16-5-8.wav,cat/11-5-8.wav,,,,
,,,26.0,32.0,0.0,32.0,2.0,2016_Mar_30_1846,Stat_Cat_Oct,59.936523905,,,,,,,,,0.0,1.0,0.735360145569,105,,,,,1,cat/2-17-7.wav,cat/2-15-7.wav,,,,
,,,,,,,,2016_Mar_30_1846,Stat_Cat_Oct,59.936523905,,,,,,,space,14.4501531124,,,,105,,,,,1,,,,,,
,,,,,,,1.0,2016_May_26_1424,Stat_Cat_Oct,59.9325843018,None,,,,,,,,1.0,1,5.80749487877,107,0.0,0.0,0.0,0.0,1,prac1.wav,prac2.wav,,,,
,,,,,,,,2016_May_26_1424,Stat_Cat_Oct,59.9325843018,,,space,12.6483831406,,,,,,,,107,,,,,1,,,,,,
,,,,,,,2.0,2016_May_26_1424,Stat_Cat_Oct,59.9325843018,None,,,,,,,,0.0,1,1.0690178871200002,107,,,,,1,ws/30.wav,ws/2.wav,12.0,0.0,0.0,0.0
,,,,,,,1.0,2016_May_26_1424,Stat_Cat_Oct,59.9325843018,None,,,,,,,,0.0,2,0.651996850967,107,,,,,1,ws/5.wav,ws/36.wav,3.0,1.0,0.0,1.0
,,,,,,,2.0,2016_May_26_1424,Stat_Cat_Oct,59.9325843018,None,,,,,,,,1.0,2,4.45598006248,107,,,,,1,ws/17.wav,ws/8.wav,9.0,2.0,0.0,2.0
,,,,,,,2.0,2016_May_26_1424,Stat_Cat_Oct,59.9325843018,None,,,,,,,,0.0,1,1.83658599854,107,,,,,1,ws/23.wav,ws/5.wav,10.0,3.0,0.0,3.0
,,,,,,,2.0,2016_May_26_1424,Stat_Cat_Oct,59.9325843018,None,,,,,,,,1.0,2,0.284920930862,107,,,,,1,ws/15.wav,ws/6.wav,8.0,4.0,0.0,4.0
,,,,,,,2.0,2016_May_26_1424,Stat_Cat_Oct,59.9325843018,['1'],[2.837881088256836],,,,,,,0.0,None,,107,,,,,1,ws/25.wav,ws/7.wav,11.0,5.0,0.0,5.0
,,,,,,,1.0,2016_May_26_1424,Stat_Cat_Oct,59.9325843018,None,,,,,,,,1.0,1,0.468575954437,107,,,,,1,ws/6.wav,ws/32.wav,4.0,6.0,0.0,6.0
,,,,,,,1.0,2016_May_26_1424,Stat_Cat_Oct,59.9325843018,None,,,,,,,,0.0,2,0.368293046951,107,,,,,1,ws/5.wav,ws/14.wav,2.0,7.0,0.0,7.0
,,,,,,,1.0,2016_May_26_1424,Stat_Cat_Oct,59.9325843018,None,,,,,,,,0.0,2,2.9710149765,107,,,,,1,ws/7.wav,ws/16.wav,6.0,8.0,0.0,8.0
,,,,,,,1.0,2016_May_26_1424,Stat_Cat_Oct,59.9325843018,None,,,,,,,,1.0,1,0.36826205253600003,107,,,,,1,ws/2.wav,ws/11.wav,0.0,9.0,0.0,9.0
,,,,,,,1.0,2016_May_26_1424,Stat_Cat_Oct,59.9325843018,None,,,,,,,,1.0,1,4.4059650898000005,107,,,,,1,ws/2.wav,ws/20.wav,1.0,10.0,0.0,10.0
,,,,,,,2.0,2016_May_26_1424,Stat_Cat_Oct,59.9325843018,None,,,,,,,,0.0,1,1.61984086037,107,,,,,1,ws/35.wav,ws/8.wav,14.0,11.0,0.0,11.0
,,,,,,,1.0,2016_May_26_1424,Stat_Cat_Oct,59.9325843018,['1'],[2.7875819206237793],,,,,,,1.0,1,0.434965848923,107,,,,,1,ws/6.wav,ws/24.wav,5.0,12.0,0.0,12.0
,,,,,,,2.0,2016_May_26_1424,Stat_Cat_Oct,59.9325843018,None,,,,,,,,1.0,2,0.234719991684,107,,,,,1,ws/28.wav,ws/7.wav,13.0,13.0,0.0,13.0
,,,,,,,1.0,2016_May_26_1424,Stat_Cat_Oct,59.9325843018,None,,,,,,,,1.0,1,0.518367052078,107,,,,,1,ws/8.wav,ws/26.wav,7.0,14.0,0.0,14.0
,,,,,,,,2016_May_26_1424,Stat_Cat_Oct,59.9325843018,,,,,space,5.39045500755,,,,,,107,,,,,1,,,,,,
,,,24.0,0.0,0.0,0.0,1.0,2016_May_26_1424,Stat_Cat_Oct,59.9325843018,,,,,,,,,1.0,1,0.551836013794,107,,,,,1,cat/8-12-5.wav,cat/8-5-12.wav,,,,
,,,5.0,1.0,0.0,1.0,2.0,2016_May_26_1424,Stat_Cat_Oct,59.9325843018,,,,,,,,,1.0,2,2.43696093559,107,,,,,1,cat/528.wav,cat/582.wav,,,,
,,,18.0,2.0,0.0,2.0,2.0,2016_May_26_1424,Stat_Cat_Oct,59.9325843018,,,,,,,,,0.0,1,0.8021478652949999,107,,,,,1,cat/2-6-26.wav,cat/2-6-17.wav,,,,
,,,11.0,3.0,0.0,3.0,1.0,2016_May_26_1424,Stat_Cat_Oct,59.9325843018,,,,,,,,,1.0,1,0.985667943954,107,,,,,1,cat/826.wav,cat/862.wav,,,,
,,,31.0,4.0,0.0,4.0,2.0,2016_May_26_1424,Stat_Cat_Oct,59.9325843018,,,,,,,,,0.0,1,0.6852900981899999,107,,,,,1,cat/2-8-15.wav,cat/2-15-8.wav,,,,
,,,23.0,5.0,0.0,5.0,2.0,2016_May_26_1424,Stat_Cat_Oct,59.9325843018,,,,,,,,,0.0,1,0.551711082458,107,,,,,1,cat/8-6-11.wav,cat/8-11-6.wav,,,,
,,,28.0,6.0,0.0,6.0,2.0,2016_May_26_1424,Stat_Cat_Oct,59.9325843018,,,,,,,,,0.0,1,1.2361381053899998,107,,,,,1,cat/2-5-13.wav,cat/2-5-16.wav,,,,
,,,22.0,7.0,0.0,7.0,2.0,2016_May_26_1424,Stat_Cat_Oct,59.9325843018,,,,,,,,,0.0,1,1.95346403122,107,,,,,1,cat/7-5-10.wav,cat/7-10-5.wav,,,,
,,,17.0,8.0,0.0,8.0,1.0,2016_May_26_1424,Stat_Cat_Oct,59.9325843018,,,,,,,,,0.0,2,2.0367000103,107,,,,,1,cat/2-5-18.wav,cat/2-5-12.wav,,,,
,,,16.0,9.0,0.0,9.0,1.0,2016_May_26_1424,Stat_Cat_Oct,59.9325843018,,,,,,,,,0.0,2,0.73557806015,107,,,,,1,cat/2-15-7.wav,cat/2-22-7.wav,,,,
,,,26.0,10.0,0.0,10.0,2.0,2016_May_26_1424,Stat_Cat_Oct,59.9325843018,,,,,,,,,1.0,2,1.8032448291799998,107,,,,,1,cat/2-17-7.wav,cat/2-15-7.wav,,,,
,,,20.0,11.0,0.0,11.0,1.0,2016_May_26_1424,Stat_Cat_Oct,59.9325843018,,,,,,,,,0.0,2,1.9701578617099997,107,,,,,1,cat/6-17-2.wav,cat/6-2-17.wav,,,,
,,,10.0,12.0,0.0,12.0,2.0,2016_May_26_1424,Stat_Cat_Oct,59.9325843018,,,,,,,,,1.0,2,0.9021790027619999,107,,,,,1,cat/852.wav,cat/825.wav,,,,
,,,3.0,13.0,0.0,13.0,1.0,2016_May_26_1424,Stat_Cat_Oct,59.9325843018,,,,,,,,,1.0,1,1.3692419529,107,,,,,1,cat/268.wav,cat/286.wav,,,,
,,,4.0,14.0,0.0,14.0,1.0,2016_May_26_1424,Stat_Cat_Oct,59.9325843018,,,,,,,,,0.0,2,0.318170070648,107,,,,,1,cat/572.wav,cat/527.wav,,,,
,,,27.0,15.0,0.0,15.0,2.0,2016_May_26_1424,Stat_Cat_Oct,59.9325843018,,,,,,,,,0.0,1,0.36832094192500003,107,,,,,1,cat/2-23-8.wav,cat/2-14-8.wav,,,,
,,,13.0,16.0,0.0,16.0,1.0,2016_May_26_1424,Stat_Cat_Oct,59.9325843018,,,,,,,,,1.0,1,1.9357120990799999,107,,,,,1,cat/11-5-7.wav,cat/21-5-7.wav,,,,
,,,19.0,17.0,0.0,17.0,1.0,2016_May_26_1424,Stat_Cat_Oct,59.9325843018,,,,,,,,,0.0,2,0.868646144867,107,,,,,1,cat/5-16-2.wav,cat/5-2-16.wav,,,,
,,,30.0,18.0,0.0,18.0,2.0,2016_May_26_1424,Stat_Cat_Oct,59.9325843018,,,,,,,,,0.0,1,0.351556062698,107,,,,,1,cat/2-7-14.wav,cat/2-14-7.wav,,,,
,,,12.0,19.0,0.0,19.0,1.0,2016_May_26_1424,Stat_Cat_Oct,59.9325843018,,,,,,,,,1.0,1,0.6019067764280001,107,,,,,1,cat/10-6-7.wav,cat/13-6-7.wav,,,,
,,,29.0,20.0,0.0,20.0,2.0,2016_May_26_1424,Stat_Cat_Oct,59.9325843018,,,,,,,,,0.0,1,1.16909885406,107,,,,,1,cat/2-6-20.wav,cat/2-6-18.wav,,,,
,,,25.0,21.0,0.0,21.0,2.0,2016_May_26_1424,Stat_Cat_Oct,59.9325843018,,,,,,,,,1.0,2,0.852014064789,107,,,,,1,cat/16-5-8.wav,cat/11-5-8.wav,,,,
,,,6.0,22.0,0.0,22.0,2.0,2016_May_26_1424,Stat_Cat_Oct,59.9325843018,,,,,,,,,0.0,1,0.535031080246,107,,,,,1,cat/627.wav,cat/672.wav,,,,
,,,8.0,23.0,0.0,23.0,1.0,2016_May_26_1424,Stat_Cat_Oct,59.9325843018,,,,,,,,,0.0,2,0.78538608551,107,,,,,1,cat/725.wav,cat/752.wav,,,,
,,,32.0,24.0,0.0,24.0,2.0,2016_May_26_1424,Stat_Cat_Oct,59.9325843018,,,,,,,,,0.0,1,0.952104091644,107,,,,,1,cat/25-5-8.wav,cat/12-5-8.wav,,,,
,,,15.0,25.0,0.0,25.0,1.0,2016_May_26_1424,Stat_Cat_Oct,59.9325843018,,,,,,,,,1.0,1,0.151556015015,107,,,,,1,cat/2-14-8.wav,cat/2-10-8.wav,,,,
,,,9.0,26.0,0.0,26.0,2.0,2016_May_26_1424,Stat_Cat_Oct,59.9325843018,,,,,,,,,1.0,2,0.267137050629,107,,,,,1,cat/762.wav,cat/726.wav,,,,
,,,7.0,27.0,0.0,27.0,1.0,2016_May_26_1424,Stat_Cat_Oct,59.9325843018,,,,,,,,,1.0,1,0.6017310619349999,107,,,,,1,cat/682.wav,cat/628.wav,,,,
,,,21.0,28.0,0.0,28.0,1.0,2016_May_26_1424,Stat_Cat_Oct,59.9325843018,,,,,,,,,1.0,1,0.11805605888399999,107,,,,,1,cat/6-18-2.wav,cat/6-2-18.wav,,,,
,,,14.0,29.0,0.0,29.0,1.0,2016_May_26_1424,Stat_Cat_Oct,59.9325843018,,,,,,,,,1.0,1,1.7865388393400001,107,,,,,1,cat/2-13-8.wav,cat/2-8-13.wav,,,,
,,,1.0,30.0,0.0,30.0,2.0,2016_May_26_1424,Stat_Cat_Oct,59.9325843018,,,,,,,,,1.0,2,0.41826701164200003,107,,,,,1,cat/285.wav,cat/258.wav,,,,
,,,2.0,31.0,0.0,31.0,2.0,2016_May_26_1424,Stat_Cat_Oct,59.9325843018,,,,,,,,,0.0,1,0.451651096344,107,,,,,1,cat/276.wav,cat/267.wav,,,,
,,,0.0,32.0,0.0,32.0,1.0,2016_May_26_1424,Stat_Cat_Oct,59.9325843018,,,,,,,,,1.0,1,0.818865060806,107,,,,,1,cat/257.wav,cat/275.wav,,,,
,,,,,,,,2016_May_26_1424,Stat_Cat_Oct,59.9325843018,,,,,,,space,11.5808088779,,,,107,,,,,1,,,,,,
,,,,,,,1.0,2016_May_26_1517,Stat_Cat_Oct,59.9336976154,None,,,,,,,,0.0,['1'],[2.0032851696014404],108,0.0,0.0,0.0,0.0,1,prac1.wav,prac2.wav,,,,
,,,,,,,,2016_May_26_1517,Stat_Cat_Oct,59.9336976154,,,space,8.47709012032,,,,,,,,108,,,,,1,,,,,,
,,,,,,,2.0,2016_May_26_1517,Stat_Cat_Oct,59.9336976154,['1'],[2.7541990280151367],,,,,,,0.0,['1'],[0.9856219291687012],108,,,,,1,ws/19.wav,ws/1.wav,6.0,0.0,0.0,0.0
,,,,,,,1.0,2016_May_26_1517,Stat_Cat_Oct,59.9336976154,None,,,,,,,,0.0,['1'],[0.21808910369873047],108,,,,,1,ws/9.wav,ws/33.wav,4.0,1.0,0.0,1.0
,,,,,,,2.0,2016_May_26_1517,Stat_Cat_Oct,59.9336976154,None,,,,,,,,0.0,['1'],[1.035688877105713],108,,,,,1,ws/22.wav,ws/4.wav,10.0,2.0,0.0,2.0
,,,,,,,2.0,2016_May_26_1517,Stat_Cat_Oct,59.9336976154,None,,,,,,,,0.0,['1'],[0.9688661098480225],108,,,,,1,ws/31.wav,ws/4.wav,9.0,3.0,0.0,3.0
,,,,,,,1.0,2016_May_26_1517,Stat_Cat_Oct,59.9336976154,None,,,,,,,,0.0,['1'],[0.5018510818481445],108,,,,,1,ws/1.wav,ws/10.wav,5.0,4.0,0.0,4.0
,,,,,,,2.0,2016_May_26_1517,Stat_Cat_Oct,59.9336976154,None,,,,,,,,0.0,['2'],[0.6020359992980957],108,,,,,1,ws/27.wav,ws/9.wav,11.0,5.0,0.0,5.0
,,,,,,,2.0,2016_May_26_1517,Stat_Cat_Oct,59.9336976154,None,,,,,,,,0.0,['2'],[0.4350440502166748],108,,,,,1,ws/21.wav,ws/3.wav,8.0,6.0,0.0,6.0
,,,,,,,1.0,2016_May_26_1517,Stat_Cat_Oct,59.9336976154,None,,,,,,,,0.0,['2'],[1.336069107055664],108,,,,,1,ws/4.wav,ws/13.wav,2.0,7.0,0.0,7.0
,,,,,,,1.0,2016_May_26_1517,Stat_Cat_Oct,59.9336976154,None,,,,,,,,0.0,['1'],[0.3517749309539795],108,,,,,1,ws/1.wav,ws/34.wav,0.0,8.0,0.0,8.0
,,,,,,,2.0,2016_May_26_1517,Stat_Cat_Oct,59.9336976154,None,,,,,,,,0.0,['1'],[2.6541688442230225],108,,,,,1,ws/12.wav,ws/3.wav,7.0,9.0,0.0,9.0
,,,,,,,1.0,2016_May_26_1517,Stat_Cat_Oct,59.9336976154,['1'],[2.9211008548736572],,,,,,,0.0,None,,108,,,,,1,ws/9.wav,ws/18.wav,3.0,10.0,0.0,10.0
,,,,,,,1.0,2016_May_26_1517,Stat_Cat_Oct,59.9336976154,None,,,,,,,,0.0,['1'],[0.7519190311431885],108,,,,,1,ws/3.wav,ws/29.wav,1.0,11.0,0.0,11.0
,,,,,,,,2016_May_26_1517,Stat_Cat_Oct,59.9336976154,,,,,space,12.0477459431,,,,,,108,,,,,1,,,,,,
,,,26.0,0.0,0.0,0.0,2.0,2016_May_26_1517,Stat_Cat_Oct,59.9336976154,,,,,,,,,0.0,['2'],[3.755258798599243],108,,,,,1,cat/3-9-14.wav,cat/3-14-9.wav,,,,
,,,13.0,1.0,0.0,1.0,1.0,2016_May_26_1517,Stat_Cat_Oct,59.9336976154,,,,,,,,,0.0,['2'],[2.019994020462036],108,,,,,1,cat/4-16-1.wav,cat/4-1-16.wav,,,,
,,,17.0,2.0,0.0,2.0,2.0,2016_May_26_1517,Stat_Cat_Oct,59.9336976154,,,,,,,,,0.0,['2'],[1.4694561958312988],108,,,,,1,cat/4-3-17.wav,cat/4-17-3.wav,,,,
,,,8.0,3.0,0.0,3.0,1.0,2016_May_26_1517,Stat_Cat_Oct,59.9336976154,,,,,,,,,0.0,['2'],[1.4027187824249268],108,,,,,1,cat/10-4-9.wav,cat/13-4-9.wav,,,,
,,,16.0,4.0,0.0,4.0,1.0,2016_May_26_1517,Stat_Cat_Oct,59.9336976154,,,,,,,,,0.0,['1'],[0.6187231540679932],108,,,,,1,cat/9-12-4.wav,cat/9-4-12.wav,,,,
,,,18.0,5.0,0.0,5.0,2.0,2016_May_26_1517,Stat_Cat_Oct,59.9336976154,,,,,,,,,0.0,['2'],[0.8187649250030518],108,,,,,1,cat/9-4-11.wav,cat/9-11-4.wav,,,,
,,,20.0,6.0,0.0,6.0,2.0,2016_May_26_1517,Stat_Cat_Oct,59.9336976154,,,,,,,,,0.0,['1'],[1.1180880069732666],108,,,,,1,cat/1-23-9.wav,cat/1-14-9.wav,,,,
,,,11.0,7.0,0.0,7.0,1.0,2016_May_26_1517,Stat_Cat_Oct,59.9336976154,,,,,,,,,0.0,['1'],[1.4694850444793701],108,,,,,1,cat/3-15-9.wav,cat/3-22-9.wav,,,,
,,,9.0,8.0,0.0,8.0,1.0,2016_May_26_1517,Stat_Cat_Oct,59.9336976154,,,,,,,,,0.0,['2'],[0.7018959522247314],108,,,,,1,cat/11-4-9.wav,cat/21-4-9.wav,,,,
,,,15.0,9.0,0.0,9.0,1.0,2016_May_26_1517,Stat_Cat_Oct,59.9336976154,,,,,,,,,0.0,['1'],[0.48514795303344727],108,,,,,1,cat/9-10-4.wav,cat/9-4-10.wav,,,,
,,,14.0,10.0,0.0,10.0,1.0,2016_May_26_1517,Stat_Cat_Oct,59.9336976154,,,,,,,,,0.0,['1'],[1.0689659118652344],108,,,,,1,cat/4-18-1.wav,cat/4-1-18.wav,,,,
,,,0.0,11.0,0.0,11.0,1.0,2016_May_26_1517,Stat_Cat_Oct,59.9336976154,,,,,,,,,0.0,['2'],[2.6540958881378174],108,,,,,1,cat/149.wav,cat/194.wav,,,,
,,,6.0,12.0,0.0,12.0,1.0,2016_May_26_1517,Stat_Cat_Oct,59.9336976154,,,,,,,,,0.0,['1'],[1.3025548458099365],108,,,,,1,cat/1-14-9.wav,cat/1-10-9.wav,,,,
,,,4.0,13.0,0.0,13.0,1.0,2016_May_26_1517,Stat_Cat_Oct,59.9336976154,,,,,,,,,0.0,['2'],[3.2214930057525635],108,,,,,1,cat/914.wav,cat/941.wav,,,,
,,,3.0,14.0,0.0,14.0,2.0,2016_May_26_1517,Stat_Cat_Oct,59.9336976154,,,,,,,,,0.0,['1'],[0.03453683853149414],108,,,,,1,cat/439.wav,cat/493.wav,,,,
,,,12.0,15.0,0.0,15.0,1.0,2016_May_26_1517,Stat_Cat_Oct,59.9336976154,,,,,,,,,0.0,['2'],[0.8187470436096191],108,,,,,1,cat/3-4-17.wav,cat/3-4-26.wav,,,,
,,,23.0,16.0,0.0,16.0,2.0,2016_May_26_1517,Stat_Cat_Oct,59.9336976154,,,,,,,,,0.0,['2'],[0.8522720336914062],108,,,,,1,cat/16-4-9.wav,cat/11-4-9.wav,,,,
,,,5.0,17.0,0.0,17.0,1.0,2016_May_26_1517,Stat_Cat_Oct,59.9336976154,,,,,,,,,0.0,['1'],[1.68635892868042],108,,,,,1,cat/934.wav,cat/943.wav,,,,
,,,2.0,18.0,0.0,18.0,2.0,2016_May_26_1517,Stat_Cat_Oct,59.9336976154,,,,,,,,,0.0,['1'],[0.45062899589538574],108,,,,,1,cat/419.wav,cat/491.wav,,,,
,,,22.0,19.0,0.0,19.0,2.0,2016_May_26_1517,Stat_Cat_Oct,59.9336976154,,,,,,,,,0.0,['2'],[0.5518350601196289],108,,,,,1,cat/1-9-15.wav,cat/1-15-9.wav,,,,
,,,24.0,20.0,0.0,20.0,2.0,2016_May_26_1517,Stat_Cat_Oct,59.9336976154,,,,,,,,,0.0,['1'],[1.4528191089630127],108,,,,,1,cat/25-4-9.wav,cat/12-4-9.wav,,,,
,,,10.0,21.0,0.0,21.0,1.0,2016_May_26_1517,Stat_Cat_Oct,59.9336976154,,,,,,,,,0.0,['1'],[1.2191989421844482],108,,,,,1,cat/3-13-9.wav,cat/3-9-13.wav,,,,
,,,25.0,22.0,0.0,22.0,2.0,2016_May_26_1517,Stat_Cat_Oct,59.9336976154,,,,,,,,,0.0,['2'],[1.119230031967163],108,,,,,1,cat/3-4-20.wav,cat/3-4-18.wav,,,,
,,,7.0,23.0,0.0,23.0,1.0,2016_May_26_1517,Stat_Cat_Oct,59.9336976154,,,,,,,,,0.0,['1'],[0.9688851833343506],108,,,,,1,cat/1-4-18.wav,cat/1-4-12.wav,,,,
,,,21.0,24.0,0.0,24.0,2.0,2016_May_26_1517,Stat_Cat_Oct,59.9336976154,,,,,,,,,0.0,['1'],[0.8187050819396973],108,,,,,1,cat/1-4-13.wav,cat/1-4-16.wav,,,,
,,,1.0,25.0,0.0,25.0,2.0,2016_May_26_1517,Stat_Cat_Oct,59.9336976154,,,,,,,,,0.0,['2'],[2.1533889770507812],108,,,,,1,cat/394.wav,cat/349.wav,,,,
,,,19.0,26.0,0.0,26.0,2.0,2016_May_26_1517,Stat_Cat_Oct,59.9336976154,,,,,,,,,0.0,['1'],[0.43506693840026855],108,,,,,1,cat/1-17-9.wav,cat/1-15-9.wav,,,,
,,,,,,,,2016_May_26_1517,Stat_Cat_Oct,59.9336976154,,,,,,,space,2.15357398987,,,,108,,,,,1,,,,,,
,,,,,,,1.0,2016_Jun_02_1420,Stat_Cat_Oct,59.933355053,None,,,,,,,,0.0,['1'],[7.909670114517212],109,0.0,0.0,0.0,0.0,1,prac1.wav,prac2.wav,,,,
,,,,,,,,2016_Jun_02_1420,Stat_Cat_Oct,59.933355053,,,space,10.1956140995,,,,,,,,109,,,,,1,,,,,,
,,,,,,,2.0,2016_Jun_02_1420,Stat_Cat_Oct,59.933355053,None,,,,,,,,0.0,['1'],[7.7595319747924805],109,,,,,1,ws/19.wav,ws/1.wav,6.0,0.0,0.0,0.0
,,,,,,,1.0,2016_Jun_02_1420,Stat_Cat_Oct,59.933355053,None,,,,,,,,0.0,['2'],[0.7519469261169434],109,,,,,1,ws/9.wav,ws/18.wav,3.0,1.0,0.0,1.0
,,,,,,,2.0,2016_Jun_02_1420,Stat_Cat_Oct,59.933355053,None,,,,,,,,0.0,['2'],[0.08476686477661133],109,,,,,1,ws/27.wav,ws/9.wav,11.0,2.0,0.0,2.0
,,,,,,,2.0,2016_Jun_02_1420,Stat_Cat_Oct,59.933355053,None,,,,,,,,0.0,['2'],[0.4515831470489502],109,,,,,1,ws/12.wav,ws/3.wav,7.0,3.0,0.0,3.0
,,,,,,,2.0,2016_Jun_02_1420,Stat_Cat_Oct,59.933355053,None,,,,,,,,0.0,['2'],[2.453997850418091],109,,,,,1,ws/31.wav,ws/4.wav,9.0,4.0,0.0,4.0
,,,,,,,1.0,2016_Jun_02_1420,Stat_Cat_Oct,59.933355053,None,,,,,,,,0.0,['2'],[5.7907538414001465],109,,,,,1,ws/1.wav,ws/10.wav,5.0,5.0,0.0,5.0
,,,,,,,1.0,2016_Jun_02_1420,Stat_Cat_Oct,59.933355053,None,,,,,,,,0.0,['1'],[1.6196320056915283],109,,,,,1,ws/1.wav,ws/34.wav,0.0,6.0,0.0,6.0
,,,,,,,1.0,2016_Jun_02_1420,Stat_Cat_Oct,59.933355053,None,,,,,,,,0.0,['1'],[1.4695441722869873],109,,,,,1,ws/4.wav,ws/13.wav,2.0,7.0,0.0,7.0
,,,,,,,1.0,2016_Jun_02_1420,Stat_Cat_Oct,59.933355053,['2'],[2.854107141494751],,,,,,,0.0,None,,109,,,,,1,ws/3.wav,ws/29.wav,1.0,8.0,0.0,8.0
,,,,,,,2.0,2016_Jun_02_1420,Stat_Cat_Oct,59.933355053,None,,,,,,,,0.0,['1'],[0.9690041542053223],109,,,,,1,ws/21.wav,ws/3.wav,8.0,9.0,0.0,9.0
,,,,,,,2.0,2016_Jun_02_1420,Stat_Cat_Oct,59.933355053,['2'],[2.6207120418548584],,,,,,,0.0,['2'],[0.5351948738098145],109,,,,,1,ws/22.wav,ws/4.wav,10.0,10.0,0.0,10.0
,,,,,,,1.0,2016_Jun_02_1420,Stat_Cat_Oct,59.933355053,['1'],[2.754235029220581],,,,,,,0.0,['1'],[0.48508405685424805],109,,,,,1,ws/9.wav,ws/33.wav,4.0,11.0,0.0,11.0
,,,,,,,,2016_Jun_02_1420,Stat_Cat_Oct,59.933355053,,,,,space,3.15472316742,,,,,,109,,,,,1,,,,,,
,,,22.0,0.0,0.0,0.0,2.0,2016_Jun_02_1420,Stat_Cat_Oct,59.933355053,,,,,,,,,0.0,['1'],[0.48512792587280273],109,,,,,1,cat/1-9-15.wav,cat/1-15-9.wav,,,,
,,,24.0,1.0,0.0,1.0,2.0,2016_Jun_02_1420,Stat_Cat_Oct,59.933355053,,,,,,,,,0.0,['1'],[0.13381218910217285],109,,,,,1,cat/25-4-9.wav,cat/12-4-9.wav,,,,
,,,6.0,2.0,0.0,2.0,1.0,2016_Jun_02_1420,Stat_Cat_Oct,59.933355053,,,,,,,,,0.0,['1'],[1.4695570468902588],109,,,,,1,cat/1-14-9.wav,cat/1-10-9.wav,,,,
,,,9.0,3.0,0.0,3.0,1.0,2016_Jun_02_1420,Stat_Cat_Oct,59.933355053,,,,,,,,,0.0,['1'],[0.08464789390563965],109,,,,,1,cat/11-4-9.wav,cat/21-4-9.wav,,,,
,,,4.0,4.0,0.0,4.0,1.0,2016_Jun_02_1420,Stat_Cat_Oct,59.933355053,,,,,,,,,0.0,['1'],[0.1169440746307373],109,,,,,1,cat/914.wav,cat/941.wav,,,,
,,,17.0,5.0,0.0,5.0,2.0,2016_Jun_02_1420,Stat_Cat_Oct,59.933355053,,,,,,,,,0.0,['1'],[4.138979911804199],109,,,,,1,cat/4-3-17.wav,cat/4-17-3.wav,,,,
,,,20.0,6.0,0.0,6.0,2.0,2016_Jun_02_1420,Stat_Cat_Oct,59.933355053,,,,,,,,,0.0,['2'],[0.4016242027282715],109,,,,,1,cat/1-23-9.wav,cat/1-14-9.wav,,,,
,,,5.0,7.0,0.0,7.0,1.0,2016_Jun_02_1420,Stat_Cat_Oct,59.933355053,,,,,,,,,0.0,['2'],[1.5860629081726074],109,,,,,1,cat/934.wav,cat/943.wav,,,,
,,,3.0,8.0,0.0,8.0,2.0,2016_Jun_02_1420,Stat_Cat_Oct,59.933355053,,,,,,,,,0.0,['2'],[1.0022549629211426],109,,,,,1,cat/439.wav,cat/493.wav,,,,
,,,1.0,9.0,0.0,9.0,2.0,2016_Jun_02_1420,Stat_Cat_Oct,59.933355053,,,,,,,,,0.0,['1'],[0.5352129936218262],109,,,,,1,cat/394.wav,cat/349.wav,,,,
,,,21.0,10.0,0.0,10.0,2.0,2016_Jun_02_1420,Stat_Cat_Oct,59.933355053,,,,,,,,,0.0,['2'],[0.3014819622039795],109,,,,,1,cat/1-4-13.wav,cat/1-4-16.wav,,,,
,,,19.0,11.0,0.0,11.0,2.0,2016_Jun_02_1420,Stat_Cat_Oct,59.933355053,,,,,,,,,0.0,['1'],[0.2681410312652588],109,,,,,1,cat/1-17-9.wav,cat/1-15-9.wav,,,,
,,,8.0,12.0,0.0,12.0,1.0,2016_Jun_02_1420,Stat_Cat_Oct,59.933355053,,,,,,,,,0.0,['2'],[0.30063581466674805],109,,,,,1,cat/10-4-9.wav,cat/13-4-9.wav,,,,
,,,7.0,13.0,0.0,13.0,1.0,2016_Jun_02_1420,Stat_Cat_Oct,59.933355053,,,,,,,,,0.0,['1'],[0.30155086517333984],109,,,,,1,cat/1-4-18.wav,cat/1-4-12.wav,,,,
,,,13.0,14.0,0.0,14.0,1.0,2016_Jun_02_1420,Stat_Cat_Oct,59.933355053,,,,,,,,,0.0,['1'],[0.5351319313049316],109,,,,,1,cat/4-16-1.wav,cat/4-1-16.wav,,,,
,,,18.0,15.0,0.0,15.0,2.0,2016_Jun_02_1420,Stat_Cat_Oct,59.933355053,,,,,,,,,0.0,['1'],[0.6352357864379883],109,,,,,1,cat/9-4-11.wav,cat/9-11-4.wav,,,,
,,,16.0,16.0,0.0,16.0,1.0,2016_Jun_02_1420,Stat_Cat_Oct,59.933355053,,,,,,,,,0.0,['1'],[0.0514070987701416],109,,,,,1,cat/9-12-4.wav,cat/9-4-12.wav,,,,
,,,23.0,17.0,0.0,17.0,2.0,2016_Jun_02_1420,Stat_Cat_Oct,59.933355053,,,,,,,,,0.0,['1'],[0.6350789070129395],109,,,,,1,cat/16-4-9.wav,cat/11-4-9.wav,,,,
,,,0.0,18.0,0.0,18.0,1.0,2016_Jun_02_1420,Stat_Cat_Oct,59.933355053,,,,,,,,,0.0,['1'],[0.4684109687805176],109,,,,,1,cat/149.wav,cat/194.wav,,,,
,,,14.0,19.0,0.0,19.0,1.0,2016_Jun_02_1420,Stat_Cat_Oct,59.933355053,,,,,,,,,0.0,['2'],[0.26825594902038574],109,,,,,1,cat/4-18-1.wav,cat/4-1-18.wav,,,,
,,,25.0,20.0,0.0,20.0,2.0,2016_Jun_02_1420,Stat_Cat_Oct,59.933355053,,,,,,,,,0.0,['2'],[0.2683579921722412],109,,,,,1,cat/3-4-20.wav,cat/3-4-18.wav,,,,
,,,11.0,21.0,0.0,21.0,1.0,2016_Jun_02_1420,Stat_Cat_Oct,59.933355053,,,,,,,,,0.0,['2'],[0.7354309558868408],109,,,,,1,cat/3-15-9.wav,cat/3-22-9.wav,,,,
,,,26.0,22.0,0.0,22.0,2.0,2016_Jun_02_1420,Stat_Cat_Oct,59.933355053,,,,,,,,,0.0,['2'],[0.5185360908508301],109,,,,,1,cat/3-9-14.wav,cat/3-14-9.wav,,,,
,,,10.0,23.0,0.0,23.0,1.0,2016_Jun_02_1420,Stat_Cat_Oct,59.933355053,,,,,,,,,0.0,['2'],[1.0022170543670654],109,,,,,1,cat/3-13-9.wav,cat/3-9-13.wav,,,,
,,,12.0,24.0,0.0,24.0,1.0,2016_Jun_02_1420,Stat_Cat_Oct,59.933355053,,,,,,,,,0.0,['2'],[0.5519599914550781],109,,,,,1,cat/3-4-17.wav,cat/3-4-26.wav,,,,
,,,15.0,25.0,0.0,25.0,1.0,2016_Jun_02_1420,Stat_Cat_Oct,59.933355053,,,,,,,,,0.0,['2'],[0.4015631675720215],109,,,,,1,cat/9-10-4.wav,cat/9-4-10.wav,,,,
,,,2.0,26.0,0.0,26.0,2.0,2016_Jun_02_1420,Stat_Cat_Oct,59.933355053,,,,,,,,,0.0,['2'],[1.9366378784179688],109,,,,,1,cat/419.wav,cat/491.wav,,,,
,,,,,,,,2016_Jun_02_1420,Stat_Cat_Oct,59.933355053,,,,,,,space,25.5288748741,,,,109,,,,,1,,,,,,
,,,,,,,1.0,2016_Jun_07_1123,Stat_Cat_Oct,59.936523905,None,,,,,,,,0.0,2.0,2.23712897301,110,0.0,0.0,0.0,0.0,1,prac1.wav,prac2.wav,,,,
,,,,,,,,2016_Jun_07_1123,Stat_Cat_Oct,59.936523905,,,space,8.61058592796,,,,,,,,110,,,,,1,,,,,,
,,,,,,,1.0,2016_Jun_07_1123,Stat_Cat_Oct,59.936523905,None,,,,,,,,1.0,1.0,0.350500106812,110,,,,,1,ws/5.wav,ws/14.wav,2.0,0.0,0.0,0.0
,,,,,,,2.0,2016_Jun_07_1123,Stat_Cat_Oct,59.936523905,None,,,,,,,,1.0,2.0,0.23483586311299998,110,,,,,1,ws/15.wav,ws/6.wav,8.0,1.0,0.0,1.0
,,,,,,,1.0,2016_Jun_07_1123,Stat_Cat_Oct,59.936523905,None,,,,,,,,1.0,1.0,0.218210935593,110,,,,,1,ws/6.wav,ws/24.wav,5.0,2.0,0.0,2.0
,,,,,,,2.0,2016_Jun_07_1123,Stat_Cat_Oct,59.936523905,None,,,,,,,,1.0,2.0,0.852192163467,110,,,,,1,ws/17.wav,ws/8.wav,9.0,3.0,0.0,3.0
,,,,,,,2.0,2016_Jun_07_1123,Stat_Cat_Oct,59.936523905,None,,,,,,,,1.0,2.0,1.15242910385,110,,,,,1,ws/28.wav,ws/7.wav,13.0,4.0,0.0,4.0
,,,,,,,2.0,2016_Jun_07_1123,Stat_Cat_Oct,59.936523905,['1'],[2.552906036376953],,,,,,,0.0,1.0,0.33503484726,110,,,,,1,ws/25.wav,ws/7.wav,11.0,5.0,0.0,5.0
,,,,,,,1.0,2016_Jun_07_1123,Stat_Cat_Oct,59.936523905,None,,,,,,,,1.0,1.0,0.118054866791,110,,,,,1,ws/6.wav,ws/32.wav,4.0,6.0,0.0,6.0
,,,,,,,1.0,2016_Jun_07_1123,Stat_Cat_Oct,59.936523905,None,,,,,,,,1.0,1.0,1.45181083679,110,,,,,1,ws/8.wav,ws/26.wav,7.0,7.0,0.0,7.0
,,,,,,,2.0,2016_Jun_07_1123,Stat_Cat_Oct,59.936523905,None,,,,,,,,1.0,2.0,0.9690809249879999,110,,,,,1,ws/30.wav,ws/2.wav,12.0,8.0,0.0,8.0
,,,,,,,2.0,2016_Jun_07_1123,Stat_Cat_Oct,59.936523905,None,,,,,,,,0.0,1.0,2.23681497574,110,,,,,1,ws/23.wav,ws/5.wav,10.0,9.0,0.0,9.0
,,,,,,,1.0,2016_Jun_07_1123,Stat_Cat_Oct,59.936523905,None,,,,,,,,0.0,2.0,0.218256950378,110,,,,,1,ws/7.wav,ws/16.wav,6.0,10.0,0.0,10.0
,,,,,,,1.0,2016_Jun_07_1123,Stat_Cat_Oct,59.936523905,None,,,,,,,,0.0,2.0,0.568539857864,110,,,,,1,ws/2.wav,ws/20.wav,1.0,11.0,0.0,11.0
,,,,,,,2.0,2016_Jun_07_1123,Stat_Cat_Oct,59.936523905,None,,,,,,,,0.0,1.0,1.0022380352,110,,,,,1,ws/35.wav,ws/8.wav,14.0,12.0,0.0,12.0
,,,,,,,1.0,2016_Jun_07_1123,Stat_Cat_Oct,59.936523905,['1'],[2.70410418510437],,,,,,,1.0,1.0,2.00331616402,110,,,,,1,ws/2.wav,ws/11.wav,0.0,13.0,0.0,13.0
,,,,,,,1.0,2016_Jun_07_1123,Stat_Cat_Oct,59.936523905,None,,,,,,,,0.0,2.0,0.8354611396789999,110,,,,,1,ws/5.wav,ws/36.wav,3.0,14.0,0.0,14.0
,,,,,,,,2016_Jun_07_1123,Stat_Cat_Oct,59.936523905,,,,,space,7.70963406563,,,,,,110,,,,,1,,,,,,
,,,24.0,0.0,0.0,0.0,1.0,2016_Jun_07_1123,Stat_Cat_Oct,59.936523905,,,,,,,,,1.0,1.0,0.668533086777,110,,,,,1,cat/8-12-5.wav,cat/8-5-12.wav,,,,
,,,30.0,1.0,0.0,1.0,2.0,2016_Jun_07_1123,Stat_Cat_Oct,59.936523905,,,,,,,,,0.0,1.0,0.351619958878,110,,,,,1,cat/2-7-14.wav,cat/2-14-7.wav,,,,
,,,32.0,2.0,0.0,2.0,2.0,2016_Jun_07_1123,Stat_Cat_Oct,59.936523905,,,,,,,,,1.0,2.0,2.77085900307,110,,,,,1,cat/25-5-8.wav,cat/12-5-8.wav,,,,
,,,18.0,3.0,0.0,3.0,2.0,2016_Jun_07_1123,Stat_Cat_Oct,59.936523905,,,,,,,,,0.0,1.0,0.718770027161,110,,,,,1,cat/2-6-26.wav,cat/2-6-17.wav,,,,
,,,29.0,4.0,0.0,4.0,2.0,2016_Jun_07_1123,Stat_Cat_Oct,59.936523905,,,,,,,,,1.0,2.0,0.268196105957,110,,,,,1,cat/2-6-20.wav,cat/2-6-18.wav,,,,
,,,7.0,5.0,0.0,5.0,1.0,2016_Jun_07_1123,Stat_Cat_Oct,59.936523905,,,,,,,,,0.0,2.0,5.00566601753,110,,,,,1,cat/682.wav,cat/628.wav,,,,
,,,28.0,6.0,0.0,6.0,2.0,2016_Jun_07_1123,Stat_Cat_Oct,59.936523905,,,,,,,,,0.0,1.0,0.501748085022,110,,,,,1,cat/2-5-13.wav,cat/2-5-16.wav,,,,
,,,15.0,7.0,0.0,7.0,1.0,2016_Jun_07_1123,Stat_Cat_Oct,59.936523905,,,,,,,,,1.0,1.0,0.28481316566500003,110,,,,,1,cat/2-14-8.wav,cat/2-10-8.wav,,,,
,,,21.0,8.0,0.0,8.0,1.0,2016_Jun_07_1123,Stat_Cat_Oct,59.936523905,,,,,,,,,0.0,2.0,0.08472299575810001,110,,,,,1,cat/6-18-2.wav,cat/6-2-18.wav,,,,
,,,6.0,9.0,0.0,9.0,2.0,2016_Jun_07_1123,Stat_Cat_Oct,59.936523905,,,,,,,,,0.0,1.0,0.318210840225,110,,,,,1,cat/627.wav,cat/672.wav,,,,
,,,19.0,10.0,0.0,10.0,1.0,2016_Jun_07_1123,Stat_Cat_Oct,59.936523905,,,,,,,,,0.0,2.0,0.251614093781,110,,,,,1,cat/5-16-2.wav,cat/5-2-16.wav,,,,
,,,14.0,11.0,0.0,11.0,1.0,2016_Jun_07_1123,Stat_Cat_Oct,59.936523905,,,,,,,,,1.0,1.0,0.351733922958,110,,,,,1,cat/2-13-8.wav,cat/2-8-13.wav,,,,
,,,3.0,12.0,0.0,12.0,1.0,2016_Jun_07_1123,Stat_Cat_Oct,59.936523905,,,,,,,,,0.0,2.0,0.35171794891400004,110,,,,,1,cat/268.wav,cat/286.wav,,,,
,,,10.0,13.0,0.0,13.0,2.0,2016_Jun_07_1123,Stat_Cat_Oct,59.936523905,,,,,,,,,1.0,2.0,0.268228054047,110,,,,,1,cat/852.wav,cat/825.wav,,,,
,,,17.0,14.0,0.0,14.0,1.0,2016_Jun_07_1123,Stat_Cat_Oct,59.936523905,,,,,,,,,1.0,1.0,1.50292897224,110,,,,,1,cat/2-5-18.wav,cat/2-5-12.wav,,,,
,,,9.0,15.0,0.0,15.0,2.0,2016_Jun_07_1123,Stat_Cat_Oct,59.936523905,,,,,,,,,1.0,2.0,0.101345777512,110,,,,,1,cat/762.wav,cat/726.wav,,,,
,,,22.0,16.0,0.0,16.0,2.0,2016_Jun_07_1123,Stat_Cat_Oct,59.936523905,,,,,,,,,0.0,1.0,0.6019010543819999,110,,,,,1,cat/7-5-10.wav,cat/7-10-5.wav,,,,
,,,1.0,17.0,0.0,17.0,2.0,2016_Jun_07_1123,Stat_Cat_Oct,59.936523905,,,,,,,,,1.0,2.0,1.23607301712,110,,,,,1,cat/285.wav,cat/258.wav,,,,
,,,16.0,18.0,0.0,18.0,1.0,2016_Jun_07_1123,Stat_Cat_Oct,59.936523905,,,,,,,,,1.0,1.0,0.852088928223,110,,,,,1,cat/2-15-7.wav,cat/2-22-7.wav,,,,
,,,4.0,19.0,0.0,19.0,1.0,2016_Jun_07_1123,Stat_Cat_Oct,59.936523905,,,,,,,,,0.0,2.0,0.0680248737335,110,,,,,1,cat/572.wav,cat/527.wav,,,,
,,,8.0,20.0,0.0,20.0,1.0,2016_Jun_07_1123,Stat_Cat_Oct,59.936523905,,,,,,,,,1.0,1.0,0.251580953598,110,,,,,1,cat/725.wav,cat/752.wav,,,,
,,,12.0,21.0,0.0,21.0,1.0,2016_Jun_07_1123,Stat_Cat_Oct,59.936523905,,,,,,,,,0.0,2.0,0.468497037888,110,,,,,1,cat/10-6-7.wav,cat/13-6-7.wav,,,,
,,,26.0,22.0,0.0,22.0,2.0,2016_Jun_07_1123,Stat_Cat_Oct,59.936523905,,,,,,,,,0.0,1.0,0.318327903748,110,,,,,1,cat/2-17-7.wav,cat/2-15-7.wav,,,,
,,,13.0,23.0,0.0,23.0,1.0,2016_Jun_07_1123,Stat_Cat_Oct,59.936523905,,,,,,,,,1.0,1.0,1.26921606064,110,,,,,1,cat/11-5-7.wav,cat/21-5-7.wav,,,,
,,,23.0,24.0,0.0,24.0,2.0,2016_Jun_07_1123,Stat_Cat_Oct,59.936523905,,,,,,,,,0.0,1.0,0.268178939819,110,,,,,1,cat/8-6-11.wav,cat/8-11-6.wav,,,,
,,,0.0,25.0,0.0,25.0,1.0,2016_Jun_07_1123,Stat_Cat_Oct,59.936523905,,,,,,,,,0.0,2.0,1.9199478626299997,110,,,,,1,cat/257.wav,cat/275.wav,,,,
,,,25.0,26.0,0.0,26.0,2.0,2016_Jun_07_1123,Stat_Cat_Oct,59.936523905,,,,,,,,,0.0,1.0,1.9867389202099999,110,,,,,1,cat/16-5-8.wav,cat/11-5-8.wav,,,,
,,,2.0,27.0,0.0,27.0,2.0,2016_Jun_07_1123,Stat_Cat_Oct,59.936523905,,,,,,,,,0.0,1.0,0.918869018555,110,,,,,1,cat/276.wav,cat/267.wav,,,,
,,,31.0,28.0,0.0,28.0,2.0,2016_Jun_07_1123,Stat_Cat_Oct,59.936523905,,,,,,,,,0.0,1.0,4.87328720093,110,,,,,1,cat/2-8-15.wav,cat/2-15-8.wav,,,,
,,,5.0,29.0,0.0,29.0,2.0,2016_Jun_07_1123,Stat_Cat_Oct,59.936523905,,,,,,,,,0.0,1.0,0.234752893448,110,,,,,1,cat/528.wav,cat/582.wav,,,,
,,,20.0,30.0,0.0,30.0,1.0,2016_Jun_07_1123,Stat_Cat_Oct,59.936523905,,,,,,,,,0.0,2.0,0.318337917328,110,,,,,1,cat/6-17-2.wav,cat/6-2-17.wav,,,,
,,,27.0,31.0,0.0,31.0,2.0,2016_Jun_07_1123,Stat_Cat_Oct,59.936523905,,,,,,,,,0.0,1.0,0.551822900772,110,,,,,1,cat/2-23-8.wav,cat/2-14-8.wav,,,,
,,,11.0,32.0,0.0,32.0,1.0,2016_Jun_07_1123,Stat_Cat_Oct,59.936523905,,,,,,,,,1.0,1.0,0.28491711616500004,110,,,,,1,cat/826.wav,cat/862.wav,,,,
,,,,,,,,2016_Jun_07_1123,Stat_Cat_Oct,59.936523905,,,,,,,space,1.78643298149,,,,110,,,,,1,,,,,,
